treat,noise,punishment,p_reg,p_strong,session,round,subject,group,sub_nb_in_group,group_id,contribution,contr_dummy,public_record,pr_dummy,oth1_subject,oth2_subject,oth1_contribution,oth2_contribution,oth1_public_record,oth2_public_record,sum_group_contributions,sum_group_contributions_pr,income_pg,income_pg_pr,received_punishment,income_reduction,income_pg_after_reduction,punish_oth1,punish_oth2,punishment_cost,income,noise__p_reg,noise__p_strong,pr_received_punishment,prrp__noise,prrp__p_strong,prrp__noise__p_strong,pr_contr_dummy,prrp__prcd,prrp__prcd__noise,prrp__prcd__p_strong,prrp__prcd__noise__p_strong,pr_public_record,pr_no_contr_sig,prcd__pr_no_contr_sig,prrp__prcd__pr_no_contr_sig,prrp__prcd__p_strong__prncs,pr_group_contr,prcd__pr_group_contr
pun_noise,1,1,1,0,1,1,1,1,1,101,20,1,20,1,7,26,20,0,20,0,40,40,20,20,2,6,14,0,0,0,14,1,0,,,,,,,,,,,,,,,,
pun_noise,1,1,1,0,1,1,7,1,2,101,20,1,20,1,26,1,0,20,0,20,40,40,20,20,1,3,17,2,1,3,14,1,0,,,,,,,,,,,,,,,,
pun_noise,1,1,1,0,1,1,26,1,3,101,0,0,0,0,1,7,20,20,20,20,40,40,40,40,2,6,34,1,1,2,32,1,0,,,,,,,,,,,,,,,,
pun_noise,1,1,1,0,1,2,1,1,1,101,0,0,0,0,7,26,0,0,0,0,0,0,20,20,1,3,17,1,1,2,15,1,0,2,2,0,0,1,2,2,0,0,20,0,0,0,0,0.5,0.5
pun_noise,1,1,1,0,1,2,7,1,2,101,0,0,0,0,26,1,0,0,0,0,0,0,20,20,2,6,14,0,0,0,14,1,0,1,1,0,0,1,1,1,0,0,20,0,0,0,0,0.5,0.5
pun_noise,1,1,1,0,1,2,26,1,3,101,0,0,0,0,1,7,0,0,0,0,0,0,20,20,1,3,17,1,1,2,15,1,0,2,2,0,0,0,0,0,0,0,0,0,0,0,0,1,0
pun_noise,1,1,1,0,1,3,1,1,1,101,20,1,20,1,7,26,20,0,20,0,40,40,20,20,3,9,11,1,2,3,8,1,0,1,1,0,0,0,0,0,0,0,0,0,0,0,0,0,0
pun_noise,1,1,1,0,1,3,7,1,2,101,20,1,20,1,1,26,20,0,20,0,40,40,20,20,2,6,14,2,2,4,10,1,0,2,2,0,0,0,0,0,0,0,0,0,0,0,0,0,0
pun_noise,1,1,1,0,1,3,26,1,3,101,0,0,0,0,7,1,20,20,20,20,40,40,40,40,4,12,28,1,1,2,26,1,0,1,1,0,0,0,0,0,0,0,0,0,0,0,0,0,0
pun_noise,1,1,1,0,1,4,1,1,1,101,0,0,0,0,26,7,0,20,0,20,20,20,30,30,4,12,18,1,3,4,14,1,0,3,3,0,0,1,3,3,0,0,20,0,0,0,0,0.5,0.5
pun_noise,1,1,1,0,1,4,7,1,2,101,20,1,20,1,26,1,0,0,0,0,20,20,10,10,5,15,0,3,3,6,-6,1,0,2,2,0,0,1,2,2,0,0,20,0,0,0,0,0.5,0.5
pun_noise,1,1,1,0,1,4,26,1,3,101,0,0,0,0,7,1,20,0,20,0,20,20,30,30,4,12,18,2,1,3,15,1,0,4,4,0,0,0,0,0,0,0,0,0,0,0,0,1,0
pun_noise,1,1,1,0,1,5,1,1,1,101,0,0,0,0,7,26,0,0,0,0,0,0,20,20,6,18,2,3,1,4,-2,1,0,4,4,0,0,0,0,0,0,0,0,0,0,0,0,0.5,0
pun_noise,1,1,1,0,1,5,7,1,2,101,0,0,0,0,1,26,0,0,0,0,0,0,20,20,4,12,8,5,5,10,-2,1,0,5,5,0,0,1,5,5,0,0,20,0,0,0,0,0,0
pun_noise,1,1,1,0,1,5,26,1,3,101,0,0,0,0,7,1,0,0,0,0,0,0,20,20,6,18,2,1,1,2,0,1,0,4,4,0,0,0,0,0,0,0,0,0,0,0,0,0.5,0
pun_noise,1,1,1,0,1,6,1,1,1,101,20,1,20,1,7,26,0,0,0,0,20,20,10,10,4,12,0,2,2,4,-4,1,0,6,6,0,0,0,0,0,0,0,0,0,0,0,0,0,0
pun_noise,1,1,1,0,1,6,7,1,2,101,0,0,0,0,26,1,0,20,0,20,20,20,30,30,3,9,21,3,3,6,15,1,0,4,4,0,0,0,0,0,0,0,0,0,0,0,0,0,0
pun_noise,1,1,1,0,1,6,26,1,3,101,0,0,0,0,7,1,0,20,0,20,20,20,30,30,5,15,15,1,1,2,13,1,0,6,6,0,0,0,0,0,0,0,0,0,0,0,0,0,0
pun_noise,1,1,1,0,1,7,1,1,1,101,0,0,0,0,26,7,0,0,0,0,0,0,20,20,3,9,11,2,2,4,7,1,0,4,4,0,0,1,4,4,0,0,20,0,0,0,0,0,0
pun_noise,1,1,1,0,1,7,7,1,2,101,0,0,0,0,1,26,0,0,0,0,0,0,20,20,3,9,11,2,3,5,6,1,0,3,3,0,0,0,0,0,0,0,0,0,0,0,0,0.5,0
pun_noise,1,1,1,0,1,7,26,1,3,101,0,0,0,0,7,1,0,0,0,0,0,0,20,20,5,15,5,1,1,2,3,1,0,5,5,0,0,0,0,0,0,0,0,0,0,0,0,0.5,0
pun_noise,1,1,1,0,1,8,1,1,1,101,0,0,0,0,7,26,20,0,20,0,20,20,30,30,5,15,15,1,2,3,12,1,0,3,3,0,0,0,0,0,0,0,0,0,0,0,0,0,0
pun_noise,1,1,1,0,1,8,7,1,2,101,20,1,20,1,1,26,0,0,0,0,20,20,10,10,2,6,4,4,4,8,-4,1,0,3,3,0,0,0,0,0,0,0,0,0,0,0,0,0,0
pun_noise,1,1,1,0,1,8,26,1,3,101,0,0,0,0,7,1,20,0,20,0,20,20,30,30,6,18,12,1,1,2,10,1,0,5,5,0,0,0,0,0,0,0,0,0,0,0,0,0,0
pun_noise,1,1,1,0,1,9,1,1,1,101,20,1,20,1,7,26,0,0,0,0,20,20,10,10,4,12,0,2,1,3,-3,1,0,5,5,0,0,0,0,0,0,0,0,0,0,0,0,0.5,0
pun_noise,1,1,1,0,1,9,7,1,2,101,0,0,0,0,26,1,0,20,0,20,20,20,30,30,3,9,21,4,2,6,15,1,0,2,2,0,0,1,2,2,0,0,20,0,0,0,0,0,0
pun_noise,1,1,1,0,1,9,26,1,3,101,0,0,0,0,7,1,0,20,0,20,20,20,30,30,5,15,15,1,2,3,12,1,0,6,6,0,0,0,0,0,0,0,0,0,0,0,0,0.5,0
pun_noise,1,1,1,0,1,10,1,1,1,101,0,0,0,0,7,26,0,0,0,0,0,0,20,20,5,15,5,4,1,5,0,1,0,4,4,0,0,1,4,4,0,0,20,0,0,0,0,0,0
pun_noise,1,1,1,0,1,10,7,1,2,101,0,0,0,0,26,1,0,0,0,0,0,0,20,20,5,15,5,2,4,6,-1,1,0,3,3,0,0,0,0,0,0,0,0,0,0,0,0,0.5,0
pun_noise,1,1,1,0,1,10,26,1,3,101,0,0,0,0,1,7,0,0,0,0,0,0,20,20,3,9,11,1,1,2,9,1,0,5,5,0,0,0,0,0,0,0,0,0,0,0,0,0.5,0
pun_noise,1,1,1,0,1,11,1,1,1,101,0,0,0,0,7,26,20,0,20,0,20,20,30,30,6,18,12,2,3,5,7,1,0,5,5,0,0,0,0,0,0,0,0,0,0,0,0,0,0
pun_noise,1,1,1,0,1,11,7,1,2,101,20,1,20,1,26,1,0,0,0,0,20,20,10,10,4,12,0,5,5,10,-10,1,0,5,5,0,0,0,0,0,0,0,0,0,0,0,0,0,0
pun_noise,1,1,1,0,1,11,26,1,3,101,0,0,0,0,7,1,20,0,20,0,20,20,30,30,8,24,6,2,1,3,3,1,0,3,3,0,0,0,0,0,0,0,0,0,0,0,0,0,0
pun_noise,1,1,1,0,1,12,1,1,1,101,0,0,0,0,7,26,0,0,0,0,0,0,20,20,3,9,11,2,2,4,7,1,0,6,6,0,0,0,0,0,0,0,0,0,0,0,0,0.5,0
pun_noise,1,1,1,0,1,12,7,1,2,101,0,0,0,0,26,1,0,0,0,0,0,0,20,20,3,9,11,2,2,4,7,1,0,4,4,0,0,1,4,4,0,0,20,0,0,0,0,0,0
pun_noise,1,1,1,0,1,12,26,1,3,101,0,0,0,0,7,1,0,0,0,0,0,0,20,20,4,12,8,1,1,2,6,1,0,8,8,0,0,0,0,0,0,0,0,0,0,0,0,0.5,0
pun_noise,1,1,1,0,1,13,1,1,1,101,0,0,0,0,7,26,0,0,0,0,0,0,20,20,4,12,8,2,2,4,4,1,0,3,3,0,0,0,0,0,0,0,0,0,0,0,0,0,0
pun_noise,1,1,1,0,1,13,7,1,2,101,0,0,0,0,1,26,0,0,0,0,0,0,20,20,3,9,11,3,4,7,4,1,0,3,3,0,0,0,0,0,0,0,0,0,0,0,0,0,0
pun_noise,1,1,1,0,1,13,26,1,3,101,0,0,0,0,1,7,0,0,0,0,0,0,20,20,6,18,2,1,1,2,0,1,0,4,4,0,0,0,0,0,0,0,0,0,0,0,0,0,0
pun_noise,1,1,1,0,1,14,1,1,1,101,20,1,20,1,7,26,20,0,20,0,40,40,20,20,3,9,11,0,5,5,6,1,0,4,4,0,0,0,0,0,0,0,0,0,0,0,0,0,0
pun_noise,1,1,1,0,1,14,7,1,2,101,20,1,20,1,1,26,20,0,20,0,40,40,20,20,2,6,14,1,1,2,12,1,0,3,3,0,0,0,0,0,0,0,0,0,0,0,0,0,0
pun_noise,1,1,1,0,1,14,26,1,3,101,0,0,0,0,1,7,20,20,20,20,40,40,40,40,6,18,22,2,2,4,18,1,0,6,6,0,0,0,0,0,0,0,0,0,0,0,0,0,0
pun_noise,1,1,1,0,1,15,1,1,1,101,20,1,20,1,26,7,0,0,0,0,20,20,10,10,6,18,0,2,2,4,-4,1,0,3,3,0,0,1,3,3,0,0,20,0,0,0,0,0.5,0.5
pun_noise,1,1,1,0,1,15,7,1,2,101,0,0,0,0,26,1,0,20,0,20,20,20,30,30,4,12,18,3,5,8,10,1,0,2,2,0,0,1,2,2,0,0,20,0,0,0,0,0.5,0.5
pun_noise,1,1,1,0,1,15,26,1,3,101,0,0,0,0,7,1,0,20,0,20,20,20,30,30,5,15,15,2,1,3,12,1,0,6,6,0,0,0,0,0,0,0,0,0,0,0,0,1,0
pun_noise,1,1,1,0,1,16,1,1,1,101,0,0,0,0,26,7,0,0,0,0,0,0,20,20,4,12,8,3,2,5,3,1,0,6,6,0,0,1,6,6,0,0,20,0,0,0,0,0,0
pun_noise,1,1,1,0,1,16,7,1,2,101,0,0,0,0,1,26,0,0,0,0,0,0,20,20,4,12,8,2,2,4,4,1,0,4,4,0,0,0,0,0,0,0,0,0,0,0,0,0.5,0
pun_noise,1,1,1,0,1,16,26,1,3,101,0,0,0,0,1,7,0,0,0,0,0,0,20,20,5,15,5,2,2,4,1,1,0,5,5,0,0,0,0,0,0,0,0,0,0,0,0,0.5,0
pun_noise,1,1,1,0,1,17,1,1,1,101,0,0,0,0,7,26,20,0,20,0,20,20,30,30,3,9,21,2,3,5,16,1,0,4,4,0,0,0,0,0,0,0,0,0,0,0,0,0,0
pun_noise,1,1,1,0,1,17,7,1,2,101,20,1,20,1,1,26,0,0,0,0,20,20,10,10,3,9,1,1,2,3,-2,1,0,4,4,0,0,0,0,0,0,0,0,0,0,0,0,0,0
pun_noise,1,1,1,0,1,17,26,1,3,101,0,0,0,0,7,1,20,0,20,0,20,20,30,30,5,15,15,1,2,3,12,1,0,5,5,0,0,0,0,0,0,0,0,0,0,0,0,0,0
pun_noise,1,1,1,0,1,18,1,1,1,101,0,0,0,0,7,26,0,0,0,0,0,0,20,20,6,18,2,2,1,3,-1,1,0,3,3,0,0,0,0,0,0,0,0,0,0,0,0,0.5,0
pun_noise,1,1,1,0,1,18,7,1,2,101,0,0,0,0,26,1,0,0,0,0,0,0,20,20,4,12,8,4,4,8,0,1,0,3,3,0,0,1,3,3,0,0,20,0,0,0,0,0,0
pun_noise,1,1,1,0,1,18,26,1,3,101,0,0,0,0,7,1,0,0,0,0,0,0,20,20,5,15,5,2,2,4,1,1,0,5,5,0,0,0,0,0,0,0,0,0,0,0,0,0.5,0
pun_noise,1,1,1,0,1,19,1,1,1,101,20,1,20,1,26,7,0,0,0,0,20,20,10,10,3,9,1,1,2,3,-2,1,0,6,6,0,0,0,0,0,0,0,0,0,0,0,0,0,0
pun_noise,1,1,1,0,1,19,7,1,2,101,0,0,0,0,1,26,20,0,20,0,20,20,30,30,4,12,18,2,2,4,14,1,0,4,4,0,0,0,0,0,0,0,0,0,0,0,0,0,0
pun_noise,1,1,1,0,1,19,26,1,3,101,0,0,0,0,7,1,0,20,0,20,20,20,30,30,3,9,21,2,1,3,18,1,0,5,5,0,0,0,0,0,0,0,0,0,0,0,0,0,0
pun_noise,1,1,1,0,1,20,1,1,1,101,0,0,0,0,26,7,0,0,0,0,0,0,20,20,6,18,2,3,2,5,-3,1,0,3,3,0,0,1,3,3,0,0,20,0,0,0,0,0,0
pun_noise,1,1,1,0,1,20,7,1,2,101,0,0,0,0,1,26,0,0,0,0,0,0,20,20,4,12,8,4,2,6,2,1,0,4,4,0,0,0,0,0,0,0,0,0,0,0,0,0.5,0
pun_noise,1,1,1,0,1,20,26,1,3,101,0,0,0,0,1,7,0,0,0,0,0,0,20,20,5,15,5,2,2,4,1,1,0,3,3,0,0,0,0,0,0,0,0,0,0,0,0,0.5,0
pun_noise,1,1,1,0,1,21,1,1,1,101,0,0,0,0,7,26,0,0,0,0,0,0,20,20,5,15,5,3,3,6,-1,1,0,6,6,0,0,0,0,0,0,0,0,0,0,0,0,0,0
pun_noise,1,1,1,0,1,21,7,1,2,101,0,0,0,0,1,26,0,0,0,0,0,0,20,20,4,12,8,4,4,8,0,1,0,4,4,0,0,0,0,0,0,0,0,0,0,0,0,0,0
pun_noise,1,1,1,0,1,21,26,1,3,101,0,0,0,0,1,7,0,0,0,0,0,0,20,20,7,21,0,1,1,2,-2,1,0,5,5,0,0,0,0,0,0,0,0,0,0,0,0,0,0
pun_noise,1,1,1,0,1,22,1,1,1,101,0,0,0,0,26,7,0,0,0,0,0,0,20,20,4,12,8,2,3,5,3,1,0,5,5,0,0,0,0,0,0,0,0,0,0,0,0,0,0
pun_noise,1,1,1,0,1,22,7,1,2,101,0,0,0,0,1,26,0,0,0,0,0,0,20,20,4,12,8,3,3,6,2,1,0,4,4,0,0,0,0,0,0,0,0,0,0,0,0,0,0
pun_noise,1,1,1,0,1,22,26,1,3,101,0,0,0,0,1,7,0,0,0,0,0,0,20,20,5,15,5,1,1,2,3,1,0,7,7,0,0,0,0,0,0,0,0,0,0,0,0,0,0
pun_noise,1,1,1,0,1,23,1,1,1,101,0,0,0,0,26,7,0,0,0,0,0,0,20,20,4,12,8,2,2,4,4,1,0,4,4,0,0,0,0,0,0,0,0,0,0,0,0,0,0
pun_noise,1,1,1,0,1,23,7,1,2,101,0,0,0,0,26,1,0,0,0,0,0,0,20,20,3,9,11,2,3,5,6,1,0,4,4,0,0,0,0,0,0,0,0,0,0,0,0,0,0
pun_noise,1,1,1,0,1,23,26,1,3,101,0,0,0,0,7,1,0,0,0,0,0,0,20,20,4,12,8,1,1,2,6,1,0,5,5,0,0,0,0,0,0,0,0,0,0,0,0,0,0
pun_noise,1,1,1,0,1,24,1,1,1,101,0,0,0,0,26,7,0,0,0,0,0,0,20,20,4,12,8,2,1,3,5,1,0,4,4,0,0,0,0,0,0,0,0,0,0,0,0,0,0
pun_noise,1,1,1,0,1,24,7,1,2,101,0,0,0,0,26,1,0,0,0,0,0,0,20,20,2,6,14,3,3,6,8,1,0,3,3,0,0,0,0,0,0,0,0,0,0,0,0,0,0
pun_noise,1,1,1,0,1,24,26,1,3,101,0,0,0,0,7,1,0,0,0,0,0,0,20,20,5,15,5,1,1,2,3,1,0,4,4,0,0,0,0,0,0,0,0,0,0,0,0,0,0
pun_noise,1,1,1,0,1,25,1,1,1,101,0,0,0,0,7,26,0,0,0,0,0,0,20,20,4,12,8,2,1,3,5,1,0,4,4,0,0,0,0,0,0,0,0,0,0,0,0,0,0
pun_noise,1,1,1,0,1,25,7,1,2,101,0,0,0,0,26,1,0,0,0,0,0,0,20,20,3,9,11,3,3,6,5,1,0,2,2,0,0,0,0,0,0,0,0,0,0,0,0,0,0
pun_noise,1,1,1,0,1,25,26,1,3,101,0,0,0,0,1,7,0,0,0,0,0,0,20,20,4,12,8,1,1,2,6,1,0,5,5,0,0,0,0,0,0,0,0,0,0,0,0,0,0
pun_noise,1,1,1,0,1,26,1,1,1,101,0,0,0,0,26,7,0,0,0,0,0,0,20,20,6,18,2,1,1,2,0,1,0,4,4,0,0,0,0,0,0,0,0,0,0,0,0,0,0
pun_noise,1,1,1,0,1,26,7,1,2,101,0,0,0,0,1,26,0,0,0,0,0,0,20,20,2,6,14,5,5,10,4,1,0,3,3,0,0,0,0,0,0,0,0,0,0,0,0,0,0
pun_noise,1,1,1,0,1,26,26,1,3,101,0,0,0,0,1,7,0,0,0,0,0,0,20,20,6,18,2,1,1,2,0,1,0,4,4,0,0,0,0,0,0,0,0,0,0,0,0,0,0
pun_noise,1,1,1,0,1,27,1,1,1,101,0,0,0,0,7,26,20,0,20,0,20,20,30,30,6,18,12,1,4,5,7,1,0,6,6,0,0,0,0,0,0,0,0,0,0,0,0,0,0
pun_noise,1,1,1,0,1,27,7,1,2,101,20,1,20,1,26,1,0,0,0,0,20,20,10,10,2,6,4,4,4,8,-4,1,0,2,2,0,0,0,0,0,0,0,0,0,0,0,0,0,0
pun_noise,1,1,1,0,1,27,26,1,3,101,0,0,0,0,1,7,0,20,0,20,20,20,30,30,8,24,6,2,1,3,3,1,0,6,6,0,0,0,0,0,0,0,0,0,0,0,0,0,0
pun_noise,1,1,1,0,1,28,1,1,1,101,20,1,20,1,7,26,0,0,0,0,20,20,10,10,5,15,0,3,3,6,-6,1,0,6,6,0,0,0,0,0,0,0,0,0,0,0,0,0.5,0
pun_noise,1,1,1,0,1,28,7,1,2,101,0,0,0,0,1,26,20,0,20,0,20,20,30,30,5,15,15,4,5,9,6,1,0,2,2,0,0,1,2,2,0,0,20,0,0,0,0,0,0
pun_noise,1,1,1,0,1,28,26,1,3,101,0,0,0,0,7,1,0,20,0,20,20,20,30,30,8,24,6,2,1,3,3,1,0,8,8,0,0,0,0,0,0,0,0,0,0,0,0,0.5,0
pun_noise,1,1,1,0,1,29,1,1,1,101,20,1,20,1,7,26,0,0,0,0,20,20,10,10,6,18,0,0,0,0,0,1,0,5,5,0,0,1,5,5,0,0,20,0,0,0,0,0,0
pun_noise,1,1,1,0,1,29,7,1,2,101,0,0,0,0,1,26,20,0,20,0,20,20,30,30,2,6,24,5,5,10,14,1,0,5,5,0,0,0,0,0,0,0,0,0,0,0,0,0.5,0
pun_noise,1,1,1,0,1,29,26,1,3,101,0,0,0,0,1,7,20,0,20,0,20,20,30,30,5,15,15,1,2,3,12,1,0,8,8,0,0,0,0,0,0,0,0,0,0,0,0,0.5,0
pun_noise,1,1,1,0,1,30,1,1,1,101,0,0,0,0,26,7,0,20,0,20,20,20,30,30,2,6,24,2,1,3,21,1,0,6,6,0,0,1,6,6,0,0,20,0,0,0,0,0,0
pun_noise,1,1,1,0,1,30,7,1,2,101,20,1,20,1,26,1,0,0,0,0,20,20,10,10,2,6,4,0,0,0,4,1,0,2,2,0,0,0,0,0,0,0,0,0,0,0,0,0.5,0
pun_noise,1,1,1,0,1,30,26,1,3,101,0,0,0,0,7,1,20,0,20,0,20,20,30,30,2,6,24,1,2,3,21,1,0,5,5,0,0,0,0,0,0,0,0,0,0,0,0,0.5,0
pun_noise,1,1,1,0,1,31,1,1,1,101,0,0,0,0,26,7,0,20,0,20,20,20,30,30,5,15,15,3,1,4,11,1,0,2,2,0,0,0,0,0,0,0,0,0,0,0,0,0.5,0
pun_noise,1,1,1,0,1,31,7,1,2,101,20,1,20,1,26,1,0,0,0,0,20,20,10,10,2,6,4,2,3,5,-1,1,0,2,2,0,0,1,2,2,0,0,20,0,0,0,0,0,0
pun_noise,1,1,1,0,1,31,26,1,3,101,0,0,0,0,1,7,0,20,0,20,20,20,30,30,5,15,15,2,1,3,12,1,0,2,2,0,0,0,0,0,0,0,0,0,0,0,0,0.5,0
pun_noise,1,1,1,0,1,32,1,1,1,101,0,0,0,0,26,7,0,20,0,20,20,20,30,30,6,18,12,3,1,4,8,1,0,5,5,0,0,0,0,0,0,0,0,0,0,0,0,0.5,0
pun_noise,1,1,1,0,1,32,7,1,2,101,20,1,20,1,1,26,0,0,0,0,20,20,10,10,2,6,4,4,3,7,-3,1,0,2,2,0,0,1,2,2,0,0,20,0,0,0,0,0,0
pun_noise,1,1,1,0,1,32,26,1,3,101,0,0,0,0,1,7,0,20,0,20,20,20,30,30,6,18,12,2,1,3,9,1,0,5,5,0,0,0,0,0,0,0,0,0,0,0,0,0.5,0
pun_noise,1,1,1,0,1,33,1,1,1,101,0,0,0,0,26,7,0,0,0,0,0,0,20,20,6,18,2,2,2,4,-2,1,0,6,6,0,0,0,0,0,0,0,0,0,0,0,0,0.5,0
pun_noise,1,1,1,0,1,33,7,1,2,101,0,0,0,0,1,26,0,0,0,0,0,0,20,20,3,9,11,5,5,10,1,1,0,2,2,0,0,1,2,2,0,0,20,0,0,0,0,0,0
pun_noise,1,1,1,0,1,33,26,1,3,101,0,0,0,0,7,1,0,0,0,0,0,0,20,20,7,21,0,1,1,2,-2,1,0,6,6,0,0,0,0,0,0,0,0,0,0,0,0,0.5,0
pun_noise,1,1,1,0,1,34,1,1,1,101,0,0,0,0,26,7,0,0,0,0,0,0,20,20,3,9,11,0,0,0,11,1,0,6,6,0,0,0,0,0,0,0,0,0,0,0,0,0,0
pun_noise,1,1,1,0,1,34,7,1,2,101,0,0,0,0,26,1,0,0,0,0,0,0,20,20,1,3,17,2,2,4,13,1,0,3,3,0,0,0,0,0,0,0,0,0,0,0,0,0,0
pun_noise,1,1,1,0,1,34,26,1,3,101,0,0,0,0,7,1,0,0,0,0,0,0,20,20,2,6,14,1,1,2,12,1,0,7,7,0,0,0,0,0,0,0,0,0,0,0,0,0,0
pun_noise,1,1,1,0,1,35,1,1,1,101,0,0,0,0,7,26,0,0,0,0,0,0,20,20,2,6,14,3,3,6,8,1,0,3,3,0,0,0,0,0,0,0,0,0,0,0,0,0,0
pun_noise,1,1,1,0,1,35,7,1,2,101,0,0,0,0,1,26,0,0,0,0,0,0,20,20,4,12,8,1,2,3,5,1,0,1,1,0,0,0,0,0,0,0,0,0,0,0,0,0,0
pun_noise,1,1,1,0,1,35,26,1,3,101,0,0,0,0,7,1,0,0,0,0,0,0,20,20,5,15,5,1,1,2,3,1,0,2,2,0,0,0,0,0,0,0,0,0,0,0,0,0,0
pun_noise,1,1,1,0,1,36,1,1,1,101,0,0,0,0,26,7,0,0,0,0,0,0,20,20,6,18,2,1,1,2,0,1,0,2,2,0,0,0,0,0,0,0,0,0,0,0,0,0,0
pun_noise,1,1,1,0,1,36,7,1,2,101,0,0,0,0,26,1,0,0,0,0,0,0,20,20,2,6,14,5,5,10,4,1,0,4,4,0,0,0,0,0,0,0,0,0,0,0,0,0,0
pun_noise,1,1,1,0,1,36,26,1,3,101,0,0,0,0,1,7,0,0,0,0,0,0,20,20,6,18,2,1,1,2,0,1,0,5,5,0,0,0,0,0,0,0,0,0,0,0,0,0,0
pun_noise,1,1,1,0,1,37,1,1,1,101,0,0,0,0,26,7,0,0,0,0,0,0,20,20,5,15,5,2,3,5,0,1,0,6,6,0,0,0,0,0,0,0,0,0,0,0,0,0,0
pun_noise,1,1,1,0,1,37,7,1,2,101,0,0,0,0,26,1,0,0,0,0,0,0,20,20,4,12,8,3,4,7,1,1,0,2,2,0,0,0,0,0,0,0,0,0,0,0,0,0,0
pun_noise,1,1,1,0,1,37,26,1,3,101,0,0,0,0,1,7,0,0,0,0,0,0,20,20,5,15,5,1,1,2,3,1,0,6,6,0,0,0,0,0,0,0,0,0,0,0,0,0,0
pun_noise,1,1,1,0,1,38,1,1,1,101,0,0,0,0,7,26,0,0,0,0,0,0,20,20,3,9,11,1,3,4,7,1,0,5,5,0,0,0,0,0,0,0,0,0,0,0,0,0,0
pun_noise,1,1,1,0,1,38,7,1,2,101,0,0,0,0,26,1,0,0,0,0,0,0,20,20,2,6,14,4,2,6,8,1,0,4,4,0,0,0,0,0,0,0,0,0,0,0,0,0,0
pun_noise,1,1,1,0,1,38,26,1,3,101,0,0,0,0,7,1,0,0,0,0,0,0,20,20,7,21,0,1,1,2,-2,1,0,5,5,0,0,0,0,0,0,0,0,0,0,0,0,0,0
pun_noise,1,1,1,0,1,39,1,1,1,101,0,0,0,0,26,7,0,0,0,0,0,0,20,20,4,12,8,1,2,3,5,1,0,3,3,0,0,0,0,0,0,0,0,0,0,0,0,0,0
pun_noise,1,1,1,0,1,39,7,1,2,101,0,0,0,0,26,1,0,0,0,0,0,0,20,20,3,9,11,3,3,6,5,1,0,2,2,0,0,0,0,0,0,0,0,0,0,0,0,0,0
pun_noise,1,1,1,0,1,39,26,1,3,101,0,0,0,0,7,1,0,0,0,0,0,0,20,20,4,12,8,1,1,2,6,1,0,7,7,0,0,0,0,0,0,0,0,0,0,0,0,0,0
pun_noise,1,1,1,0,1,40,1,1,1,101,0,0,0,0,26,7,0,0,0,0,0,0,20,20,2,6,14,2,2,4,10,1,0,4,4,0,0,0,0,0,0,0,0,0,0,0,0,0,0
pun_noise,1,1,1,0,1,40,7,1,2,101,0,0,0,0,1,26,0,0,0,0,0,0,20,20,3,9,11,1,3,4,7,1,0,3,3,0,0,0,0,0,0,0,0,0,0,0,0,0,0
pun_noise,1,1,1,0,1,40,26,1,3,101,0,0,0,0,7,1,0,0,0,0,0,0,20,20,5,15,5,1,1,2,3,1,0,4,4,0,0,0,0,0,0,0,0,0,0,0,0,0,0
pun_noise,1,1,1,0,1,41,1,1,1,101,0,0,0,0,7,26,0,0,0,0,0,0,20,20,2,6,14,1,1,2,12,1,0,2,2,0,0,0,0,0,0,0,0,0,0,0,0,0,0
pun_noise,1,1,1,0,1,41,7,1,2,101,0,0,0,0,1,26,0,0,0,0,0,0,20,20,2,6,14,1,3,4,10,1,0,3,3,0,0,0,0,0,0,0,0,0,0,0,0,0,0
pun_noise,1,1,1,0,1,41,26,1,3,101,0,0,0,0,1,7,0,0,0,0,0,0,20,20,4,12,8,1,1,2,6,1,0,5,5,0,0,0,0,0,0,0,0,0,0,0,0,0,0
pun_noise,1,1,1,0,1,42,1,1,1,101,0,0,0,0,26,7,0,0,0,0,0,0,20,20,5,15,5,1,1,2,3,1,0,2,2,0,0,0,0,0,0,0,0,0,0,0,0,0,0
pun_noise,1,1,1,0,1,42,7,1,2,101,0,0,0,0,1,26,0,0,0,0,0,0,20,20,2,6,14,4,2,6,8,1,0,2,2,0,0,0,0,0,0,0,0,0,0,0,0,0,0
pun_noise,1,1,1,0,1,42,26,1,3,101,0,0,0,0,1,7,0,0,0,0,0,0,20,20,3,9,11,1,1,2,9,1,0,4,4,0,0,0,0,0,0,0,0,0,0,0,0,0,0
pun_noise,1,1,1,0,1,43,1,1,1,101,0,0,0,0,26,7,0,0,0,0,0,0,20,20,2,6,14,1,1,2,12,1,0,5,5,0,0,0,0,0,0,0,0,0,0,0,0,0,0
pun_noise,1,1,1,0,1,43,7,1,2,101,0,0,0,0,1,26,0,0,0,0,0,0,20,20,2,6,14,1,1,2,12,1,0,2,2,0,0,0,0,0,0,0,0,0,0,0,0,0,0
pun_noise,1,1,1,0,1,43,26,1,3,101,0,0,0,0,7,1,0,0,0,0,0,0,20,20,2,6,14,1,1,2,12,1,0,3,3,0,0,0,0,0,0,0,0,0,0,0,0,0,0
pun_noise,1,1,1,0,1,44,1,1,1,101,0,0,0,0,26,7,0,0,0,0,0,0,20,20,5,15,5,1,1,2,3,1,0,2,2,0,0,0,0,0,0,0,0,0,0,0,0,0,0
pun_noise,1,1,1,0,1,44,7,1,2,101,0,0,0,0,1,26,0,0,0,0,0,0,20,20,2,6,14,4,3,7,7,1,0,2,2,0,0,0,0,0,0,0,0,0,0,0,0,0,0
pun_noise,1,1,1,0,1,44,26,1,3,101,0,0,0,0,7,1,0,0,0,0,0,0,20,20,4,12,8,1,1,2,6,1,0,2,2,0,0,0,0,0,0,0,0,0,0,0,0,0,0
pun_noise,1,1,1,0,1,45,1,1,1,101,0,0,0,0,26,7,0,0,0,0,0,0,20,20,4,12,8,1,1,2,6,1,0,5,5,0,0,0,0,0,0,0,0,0,0,0,0,0,0
pun_noise,1,1,1,0,1,45,7,1,2,101,0,0,0,0,1,26,0,0,0,0,0,0,20,20,2,6,14,3,4,7,7,1,0,2,2,0,0,0,0,0,0,0,0,0,0,0,0,0,0
pun_noise,1,1,1,0,1,45,26,1,3,101,0,0,0,0,7,1,0,0,0,0,0,0,20,20,5,15,5,1,1,2,3,1,0,4,4,0,0,0,0,0,0,0,0,0,0,0,0,0,0
pun_noise,1,1,1,0,1,46,1,1,1,101,0,0,0,0,7,26,0,0,0,0,0,0,20,20,6,18,2,1,2,3,-1,1,0,4,4,0,0,0,0,0,0,0,0,0,0,0,0,0,0
pun_noise,1,1,1,0,1,46,7,1,2,101,0,0,0,0,26,1,0,0,0,0,0,0,20,20,2,6,14,3,5,8,6,1,0,2,2,0,0,0,0,0,0,0,0,0,0,0,0,0,0
pun_noise,1,1,1,0,1,46,26,1,3,101,0,0,0,0,1,7,0,0,0,0,0,0,20,20,5,15,5,1,1,2,3,1,0,5,5,0,0,0,0,0,0,0,0,0,0,0,0,0,0
pun_noise,1,1,1,0,1,47,1,1,1,101,0,0,0,0,7,26,0,0,0,0,0,0,20,20,6,18,2,2,2,4,-2,1,0,6,6,0,0,0,0,0,0,0,0,0,0,0,0,0,0
pun_noise,1,1,1,0,1,47,7,1,2,101,0,0,0,0,1,26,0,0,0,0,0,0,20,20,3,9,11,5,5,10,1,1,0,2,2,0,0,0,0,0,0,0,0,0,0,0,0,0,0
pun_noise,1,1,1,0,1,47,26,1,3,101,0,0,0,0,7,1,0,0,0,0,0,0,20,20,7,21,0,1,1,2,-2,1,0,5,5,0,0,0,0,0,0,0,0,0,0,0,0,0,0
pun_noise,1,1,1,0,1,48,1,1,1,101,20,1,20,1,7,26,0,0,0,0,20,20,10,10,4,12,0,4,3,7,-7,1,0,6,6,0,0,0,0,0,0,0,0,0,0,0,0,0,0
pun_noise,1,1,1,0,1,48,7,1,2,101,0,0,0,0,26,1,0,20,0,20,20,20,30,30,6,18,12,4,3,7,5,1,0,3,3,0,0,0,0,0,0,0,0,0,0,0,0,0,0
pun_noise,1,1,1,0,1,48,26,1,3,101,0,0,0,0,7,1,0,20,0,20,20,20,30,30,7,21,9,2,1,3,6,1,0,7,7,0,0,0,0,0,0,0,0,0,0,0,0,0,0
pun_noise,1,1,1,0,1,49,1,1,1,101,0,0,0,0,26,7,0,20,0,20,20,20,30,30,7,21,9,2,0,2,7,1,0,4,4,0,0,1,4,4,0,0,20,0,0,0,0,0,0
pun_noise,1,1,1,0,1,49,7,1,2,101,20,1,20,1,26,1,0,0,0,0,20,20,10,10,1,3,7,5,5,10,-3,1,0,6,6,0,0,0,0,0,0,0,0,0,0,0,0,0.5,0
pun_noise,1,1,1,0,1,49,26,1,3,101,0,0,0,0,1,7,0,20,0,20,20,20,30,30,7,21,9,2,1,3,6,1,0,7,7,0,0,0,0,0,0,0,0,0,0,0,0,0.5,0
pun_noise,1,1,1,0,1,50,1,1,1,101,0,0,0,0,26,7,0,0,0,0,0,0,20,20,2,6,14,2,1,3,11,1,0,7,7,0,0,0,0,0,0,0,0,0,0,0,0,0.5,0
pun_noise,1,1,1,0,1,50,7,1,2,101,0,0,0,0,1,26,0,0,0,0,0,0,20,20,2,6,14,1,1,2,12,1,0,1,1,0,0,1,1,1,0,0,20,0,0,0,0,0,0
pun_noise,1,1,1,0,1,50,26,1,3,101,0,0,0,0,7,1,0,0,0,0,0,0,20,20,3,9,11,1,1,2,9,1,0,7,7,0,0,0,0,0,0,0,0,0,0,0,0,0.5,0
pun_noise,1,1,1,0,1,1,23,2,1,102,0,0,0,0,30,24,20,20,20,0,40,20,40,30,1,3,37,0,0,0,37,1,0,,,,,,,,,,,,,,,,
pun_noise,1,1,1,0,1,1,24,2,2,102,20,1,0,0,30,23,20,0,20,0,40,20,20,10,0,0,20,0,1,1,19,1,0,,,,,,,,,,,,,,,,
pun_noise,1,1,1,0,1,1,30,2,3,102,20,1,20,1,23,24,0,20,0,0,40,20,20,10,0,0,20,0,0,0,20,1,0,,,,,,,,,,,,,,,,
pun_noise,1,1,1,0,1,2,23,2,1,102,20,1,20,1,24,30,20,20,20,0,60,40,30,20,2,6,24,0,5,5,19,1,0,1,1,0,0,0,0,0,0,0,0,0,0,0,0,0.5,0
pun_noise,1,1,1,0,1,2,24,2,2,102,20,1,20,1,23,30,20,20,20,0,60,40,30,20,2,6,24,0,1,1,23,1,0,0,0,0,0,1,0,0,0,0,0,1,1,0,0,0.5,0.5
pun_noise,1,1,1,0,1,2,30,2,3,102,20,1,0,0,23,24,20,20,20,20,60,40,30,20,6,18,12,2,2,4,8,1,0,0,0,0,0,1,0,0,0,0,20,0,0,0,0,0,0
pun_noise,1,1,1,0,1,3,23,2,1,102,20,1,20,1,30,24,20,20,20,20,60,60,30,30,0,0,30,0,0,0,30,1,0,2,2,0,0,1,2,2,0,0,20,0,0,0,0,0.5,0.5
pun_noise,1,1,1,0,1,3,24,2,2,102,20,1,20,1,30,23,20,20,20,20,60,60,30,30,0,0,30,0,0,0,30,1,0,2,2,0,0,1,2,2,0,0,20,0,0,0,0,0.5,0.5
pun_noise,1,1,1,0,1,3,30,2,3,102,20,1,20,1,23,24,20,20,20,20,60,60,30,30,0,0,30,0,0,0,30,1,0,6,6,0,0,1,6,6,0,0,0,1,1,6,0,1,1
pun_noise,1,1,1,0,1,4,23,2,1,102,20,1,20,1,30,24,0,20,0,20,40,40,20,20,0,0,20,5,0,5,15,1,0,0,0,0,0,1,0,0,0,0,20,0,0,0,0,1,1
pun_noise,1,1,1,0,1,4,24,2,2,102,20,1,20,1,30,23,0,20,0,20,40,40,20,20,0,0,20,1,0,1,19,1,0,0,0,0,0,1,0,0,0,0,20,0,0,0,0,1,1
pun_noise,1,1,1,0,1,4,30,2,3,102,0,0,0,0,24,23,20,20,20,20,40,40,40,40,6,18,22,0,0,0,22,1,0,0,0,0,0,1,0,0,0,0,20,0,0,0,0,1,1
pun_noise,1,1,1,0,1,5,23,2,1,102,20,1,20,1,24,30,20,0,20,0,40,40,20,20,0,0,20,0,0,0,20,1,0,0,0,0,0,1,0,0,0,0,20,0,0,0,0,0.5,0.5
pun_noise,1,1,1,0,1,5,24,2,2,102,20,1,20,1,23,30,20,0,20,0,40,40,20,20,0,0,20,0,3,3,17,1,0,0,0,0,0,1,0,0,0,0,20,0,0,0,0,0.5,0.5
pun_noise,1,1,1,0,1,5,30,2,3,102,0,0,0,0,23,24,20,20,20,20,40,40,40,40,3,9,31,0,0,0,31,1,0,6,6,0,0,0,0,0,0,0,0,0,0,0,0,1,0
pun_noise,1,1,1,0,1,6,23,2,1,102,0,0,0,0,30,24,20,20,20,20,40,40,40,40,9,27,13,0,0,0,13,1,0,0,0,0,0,1,0,0,0,0,20,0,0,0,0,0.5,0.5
pun_noise,1,1,1,0,1,6,24,2,2,102,20,1,20,1,23,30,0,20,0,20,40,40,20,20,0,0,20,5,0,5,15,1,0,0,0,0,0,1,0,0,0,0,20,0,0,0,0,0.5,0.5
pun_noise,1,1,1,0,1,6,30,2,3,102,20,1,20,1,23,24,0,20,0,20,40,40,20,20,0,0,20,4,0,4,16,1,0,3,3,0,0,0,0,0,0,0,0,0,0,0,0,1,0
pun_noise,1,1,1,0,1,7,23,2,1,102,20,1,20,1,24,30,20,0,20,0,40,40,20,20,4,12,8,0,4,4,4,1,0,9,9,0,0,0,0,0,0,0,0,0,0,0,0,1,0
pun_noise,1,1,1,0,1,7,24,2,2,102,20,1,20,1,30,23,0,20,0,20,40,40,20,20,0,0,20,5,0,5,15,1,0,0,0,0,0,1,0,0,0,0,20,0,0,0,0,0.5,0.5
pun_noise,1,1,1,0,1,7,30,2,3,102,0,0,0,0,24,23,20,20,20,20,40,40,40,40,9,27,13,0,4,4,9,1,0,0,0,0,0,1,0,0,0,0,20,0,0,0,0,0.5,0.5
pun_noise,1,1,1,0,1,8,23,2,1,102,20,1,20,1,30,24,0,20,0,20,40,40,20,20,0,0,20,3,0,3,17,1,0,4,4,0,0,1,4,4,0,0,20,0,0,0,0,0.5,0.5
pun_noise,1,1,1,0,1,8,24,2,2,102,20,1,20,1,23,30,20,0,20,0,40,40,20,20,0,0,20,0,5,5,15,1,0,0,0,0,0,1,0,0,0,0,20,0,0,0,0,0.5,0.5
pun_noise,1,1,1,0,1,8,30,2,3,102,0,0,0,0,23,24,20,20,20,20,40,40,40,40,8,24,16,0,0,0,16,1,0,9,9,0,0,0,0,0,0,0,0,0,0,0,0,1,0
pun_noise,1,1,1,0,1,9,23,2,1,102,20,1,20,1,30,24,0,20,0,0,40,20,20,10,0,0,20,5,5,10,10,1,0,0,0,0,0,1,0,0,0,0,20,0,0,0,0,0.5,0.5
pun_noise,1,1,1,0,1,9,24,2,2,102,20,1,0,0,23,30,20,0,20,0,40,20,20,10,5,15,5,0,5,5,0,1,0,0,0,0,0,1,0,0,0,0,20,0,0,0,0,0.5,0.5
pun_noise,1,1,1,0,1,9,30,2,3,102,0,0,0,0,24,23,20,20,0,20,40,20,40,30,10,30,10,0,0,0,10,1,0,8,8,0,0,0,0,0,0,0,0,0,0,0,0,1,0
pun_noise,1,1,1,0,1,10,23,2,1,102,20,1,20,1,24,30,20,20,20,20,60,60,30,30,0,0,30,0,0,0,30,1,0,0,0,0,0,1,0,0,0,0,20,0,0,0,0,0,0
pun_noise,1,1,1,0,1,10,24,2,2,102,20,1,20,1,23,30,20,20,20,20,60,60,30,30,0,0,30,0,0,0,30,1,0,5,5,0,0,1,5,5,0,0,0,1,1,5,0,0.5,0.5
pun_noise,1,1,1,0,1,10,30,2,3,102,20,1,20,1,24,23,20,20,20,20,60,60,30,30,0,0,30,0,0,0,30,1,0,10,10,0,0,0,0,0,0,0,0,0,0,0,0,0.5,0
pun_noise,1,1,1,0,1,11,23,2,1,102,20,1,20,1,30,24,20,20,20,20,60,60,30,30,0,0,30,0,0,0,30,1,0,0,0,0,0,1,0,0,0,0,20,0,0,0,0,1,1
pun_noise,1,1,1,0,1,11,24,2,2,102,20,1,20,1,30,23,20,20,20,20,60,60,30,30,0,0,30,0,0,0,30,1,0,0,0,0,0,1,0,0,0,0,20,0,0,0,0,1,1
pun_noise,1,1,1,0,1,11,30,2,3,102,20,1,20,1,24,23,20,20,20,20,60,60,30,30,0,0,30,0,0,0,30,1,0,0,0,0,0,1,0,0,0,0,20,0,0,0,0,1,1
pun_noise,1,1,1,0,1,12,23,2,1,102,20,1,20,1,24,30,20,20,20,20,60,60,30,30,0,0,30,0,0,0,30,1,0,0,0,0,0,1,0,0,0,0,20,0,0,0,0,1,1
pun_noise,1,1,1,0,1,12,24,2,2,102,20,1,20,1,30,23,20,20,20,20,60,60,30,30,0,0,30,0,0,0,30,1,0,0,0,0,0,1,0,0,0,0,20,0,0,0,0,1,1
pun_noise,1,1,1,0,1,12,30,2,3,102,20,1,20,1,23,24,20,20,20,20,60,60,30,30,0,0,30,0,0,0,30,1,0,0,0,0,0,1,0,0,0,0,20,0,0,0,0,1,1
pun_noise,1,1,1,0,1,13,23,2,1,102,20,1,20,1,30,24,20,20,20,20,60,60,30,30,0,0,30,0,0,0,30,1,0,0,0,0,0,1,0,0,0,0,20,0,0,0,0,1,1
pun_noise,1,1,1,0,1,13,24,2,2,102,20,1,20,1,30,23,20,20,20,20,60,60,30,30,0,0,30,0,0,0,30,1,0,0,0,0,0,1,0,0,0,0,20,0,0,0,0,1,1
pun_noise,1,1,1,0,1,13,30,2,3,102,20,1,20,1,24,23,20,20,20,20,60,60,30,30,0,0,30,0,0,0,30,1,0,0,0,0,0,1,0,0,0,0,20,0,0,0,0,1,1
pun_noise,1,1,1,0,1,14,23,2,1,102,20,1,20,1,30,24,20,20,20,20,60,60,30,30,0,0,30,0,0,0,30,1,0,0,0,0,0,1,0,0,0,0,20,0,0,0,0,1,1
pun_noise,1,1,1,0,1,14,24,2,2,102,20,1,20,1,30,23,20,20,20,20,60,60,30,30,0,0,30,0,0,0,30,1,0,0,0,0,0,1,0,0,0,0,20,0,0,0,0,1,1
pun_noise,1,1,1,0,1,14,30,2,3,102,20,1,20,1,24,23,20,20,20,20,60,60,30,30,0,0,30,0,0,0,30,1,0,0,0,0,0,1,0,0,0,0,20,0,0,0,0,1,1
pun_noise,1,1,1,0,1,15,23,2,1,102,20,1,20,1,30,24,20,20,20,20,60,60,30,30,0,0,30,0,0,0,30,1,0,0,0,0,0,1,0,0,0,0,20,0,0,0,0,1,1
pun_noise,1,1,1,0,1,15,24,2,2,102,20,1,20,1,23,30,20,20,20,20,60,60,30,30,0,0,30,0,0,0,30,1,0,0,0,0,0,1,0,0,0,0,20,0,0,0,0,1,1
pun_noise,1,1,1,0,1,15,30,2,3,102,20,1,20,1,23,24,20,20,20,20,60,60,30,30,0,0,30,0,0,0,30,1,0,0,0,0,0,1,0,0,0,0,20,0,0,0,0,1,1
pun_noise,1,1,1,0,1,16,23,2,1,102,20,1,20,1,30,24,0,20,0,20,40,40,20,20,0,0,20,0,0,0,20,1,0,0,0,0,0,1,0,0,0,0,20,0,0,0,0,1,1
pun_noise,1,1,1,0,1,16,24,2,2,102,20,1,20,1,23,30,20,0,20,0,40,40,20,20,0,0,20,0,0,0,20,1,0,0,0,0,0,1,0,0,0,0,20,0,0,0,0,1,1
pun_noise,1,1,1,0,1,16,30,2,3,102,0,0,0,0,23,24,20,20,20,20,40,40,40,40,0,0,40,0,0,0,40,1,0,0,0,0,0,1,0,0,0,0,20,0,0,0,0,1,1
pun_noise,1,1,1,0,1,17,23,2,1,102,20,1,20,1,24,30,20,20,20,20,60,60,30,30,0,0,30,0,0,0,30,1,0,0,0,0,0,1,0,0,0,0,20,0,0,0,0,0.5,0.5
pun_noise,1,1,1,0,1,17,24,2,2,102,20,1,20,1,30,23,20,20,20,20,60,60,30,30,0,0,30,0,0,0,30,1,0,0,0,0,0,1,0,0,0,0,20,0,0,0,0,0.5,0.5
pun_noise,1,1,1,0,1,17,30,2,3,102,20,1,20,1,24,23,20,20,20,20,60,60,30,30,0,0,30,0,0,0,30,1,0,0,0,0,0,0,0,0,0,0,0,0,0,0,0,1,0
pun_noise,1,1,1,0,1,18,23,2,1,102,20,1,20,1,30,24,20,20,20,20,60,60,30,30,0,0,30,0,0,0,30,1,0,0,0,0,0,1,0,0,0,0,20,0,0,0,0,1,1
pun_noise,1,1,1,0,1,18,24,2,2,102,20,1,20,1,23,30,20,20,20,20,60,60,30,30,0,0,30,0,0,0,30,1,0,0,0,0,0,1,0,0,0,0,20,0,0,0,0,1,1
pun_noise,1,1,1,0,1,18,30,2,3,102,20,1,20,1,23,24,20,20,20,20,60,60,30,30,0,0,30,0,0,0,30,1,0,0,0,0,0,1,0,0,0,0,20,0,0,0,0,1,1
pun_noise,1,1,1,0,1,19,23,2,1,102,20,1,0,0,30,24,20,20,20,0,60,20,30,10,0,0,30,0,5,5,25,1,0,0,0,0,0,1,0,0,0,0,20,0,0,0,0,1,1
pun_noise,1,1,1,0,1,19,24,2,2,102,20,1,0,0,30,23,20,20,20,0,60,20,30,10,5,15,15,0,0,0,15,1,0,0,0,0,0,1,0,0,0,0,20,0,0,0,0,1,1
pun_noise,1,1,1,0,1,19,30,2,3,102,20,1,20,1,23,24,20,20,0,0,60,20,30,10,0,0,30,0,0,0,30,1,0,0,0,0,0,1,0,0,0,0,20,0,0,0,0,1,1
pun_noise,1,1,1,0,1,20,23,2,1,102,20,1,20,1,30,24,20,20,20,20,60,60,30,30,0,0,30,0,0,0,30,1,0,0,0,0,0,1,0,0,0,0,0,1,1,0,0,0.5,0.5
pun_noise,1,1,1,0,1,20,24,2,2,102,20,1,20,1,30,23,20,20,20,20,60,60,30,30,0,0,30,0,0,0,30,1,0,5,5,0,0,1,5,5,0,0,0,1,1,5,0,0.5,0.5
pun_noise,1,1,1,0,1,20,30,2,3,102,20,1,20,1,24,23,20,20,20,20,60,60,30,30,0,0,30,0,0,0,30,1,0,0,0,0,0,1,0,0,0,0,20,0,0,0,0,0,0
pun_noise,1,1,1,0,1,21,23,2,1,102,20,1,20,1,30,24,20,20,20,20,60,60,30,30,0,0,30,0,0,0,30,1,0,0,0,0,0,1,0,0,0,0,20,0,0,0,0,1,1
pun_noise,1,1,1,0,1,21,24,2,2,102,20,1,20,1,30,23,20,20,20,20,60,60,30,30,0,0,30,0,0,0,30,1,0,0,0,0,0,1,0,0,0,0,20,0,0,0,0,1,1
pun_noise,1,1,1,0,1,21,30,2,3,102,20,1,20,1,24,23,20,20,20,20,60,60,30,30,0,0,30,0,0,0,30,1,0,0,0,0,0,1,0,0,0,0,20,0,0,0,0,1,1
pun_noise,1,1,1,0,1,22,23,2,1,102,20,1,20,1,24,30,0,20,0,20,40,40,20,20,0,0,20,0,0,0,20,1,0,0,0,0,0,1,0,0,0,0,20,0,0,0,0,1,1
pun_noise,1,1,1,0,1,22,24,2,2,102,0,0,0,0,30,23,20,20,20,20,40,40,40,40,0,0,40,0,0,0,40,1,0,0,0,0,0,1,0,0,0,0,20,0,0,0,0,1,1
pun_noise,1,1,1,0,1,22,30,2,3,102,20,1,20,1,23,24,20,0,20,0,40,40,20,20,0,0,20,0,0,0,20,1,0,0,0,0,0,1,0,0,0,0,20,0,0,0,0,1,1
pun_noise,1,1,1,0,1,23,23,2,1,102,20,1,20,1,24,30,20,20,0,20,60,40,30,20,0,0,30,5,0,5,25,1,0,0,0,0,0,1,0,0,0,0,20,0,0,0,0,0.5,0.5
pun_noise,1,1,1,0,1,23,24,2,2,102,20,1,0,0,30,23,20,20,20,20,60,40,30,20,5,15,15,0,0,0,15,1,0,0,0,0,0,0,0,0,0,0,0,0,0,0,0,1,0
pun_noise,1,1,1,0,1,23,30,2,3,102,20,1,20,1,23,24,20,20,20,0,60,40,30,20,0,0,30,0,0,0,30,1,0,0,0,0,0,1,0,0,0,0,20,0,0,0,0,0.5,0.5
pun_noise,1,1,1,0,1,24,23,2,1,102,20,1,20,1,24,30,20,20,20,20,60,60,30,30,0,0,30,0,0,0,30,1,0,0,0,0,0,1,0,0,0,0,20,0,0,0,0,0.5,0.5
pun_noise,1,1,1,0,1,24,24,2,2,102,20,1,20,1,30,23,20,20,20,20,60,60,30,30,0,0,30,0,0,0,30,1,0,5,5,0,0,1,5,5,0,0,0,1,1,5,0,1,1
pun_noise,1,1,1,0,1,24,30,2,3,102,20,1,20,1,24,23,20,20,20,20,60,60,30,30,0,0,30,0,0,0,30,1,0,0,0,0,0,1,0,0,0,0,20,0,0,0,0,0.5,0.5
pun_noise,1,1,1,0,1,25,23,2,1,102,20,1,20,1,30,24,20,20,20,20,60,60,30,30,0,0,30,0,0,0,30,1,0,0,0,0,0,1,0,0,0,0,20,0,0,0,0,1,1
pun_noise,1,1,1,0,1,25,24,2,2,102,20,1,20,1,23,30,20,20,20,20,60,60,30,30,0,0,30,0,0,0,30,1,0,0,0,0,0,1,0,0,0,0,20,0,0,0,0,1,1
pun_noise,1,1,1,0,1,25,30,2,3,102,20,1,20,1,23,24,20,20,20,20,60,60,30,30,0,0,30,0,0,0,30,1,0,0,0,0,0,1,0,0,0,0,20,0,0,0,0,1,1
pun_noise,1,1,1,0,1,26,23,2,1,102,20,1,20,1,30,24,20,20,20,20,60,60,30,30,0,0,30,0,0,0,30,1,0,0,0,0,0,1,0,0,0,0,20,0,0,0,0,1,1
pun_noise,1,1,1,0,1,26,24,2,2,102,20,1,20,1,23,30,20,20,20,20,60,60,30,30,0,0,30,0,0,0,30,1,0,0,0,0,0,1,0,0,0,0,20,0,0,0,0,1,1
pun_noise,1,1,1,0,1,26,30,2,3,102,20,1,20,1,23,24,20,20,20,20,60,60,30,30,0,0,30,0,0,0,30,1,0,0,0,0,0,1,0,0,0,0,20,0,0,0,0,1,1
pun_noise,1,1,1,0,1,27,23,2,1,102,20,1,20,1,30,24,20,0,20,0,40,40,20,20,0,0,20,0,0,0,20,1,0,0,0,0,0,1,0,0,0,0,20,0,0,0,0,1,1
pun_noise,1,1,1,0,1,27,24,2,2,102,0,0,0,0,23,30,20,20,20,20,40,40,40,40,0,0,40,0,0,0,40,1,0,0,0,0,0,1,0,0,0,0,20,0,0,0,0,1,1
pun_noise,1,1,1,0,1,27,30,2,3,102,20,1,20,1,23,24,20,0,20,0,40,40,20,20,0,0,20,0,0,0,20,1,0,0,0,0,0,1,0,0,0,0,20,0,0,0,0,1,1
pun_noise,1,1,1,0,1,28,23,2,1,102,0,0,0,0,30,24,20,20,20,20,40,40,40,40,0,0,40,0,0,0,40,1,0,0,0,0,0,1,0,0,0,0,20,0,0,0,0,0.5,0.5
pun_noise,1,1,1,0,1,28,24,2,2,102,20,1,20,1,23,30,0,20,0,20,40,40,20,20,0,0,20,0,0,0,20,1,0,0,0,0,0,0,0,0,0,0,0,0,0,0,0,1,0
pun_noise,1,1,1,0,1,28,30,2,3,102,20,1,20,1,23,24,0,20,0,20,40,40,20,20,0,0,20,0,0,0,20,1,0,0,0,0,0,1,0,0,0,0,20,0,0,0,0,0.5,0.5
pun_noise,1,1,1,0,1,29,23,2,1,102,20,1,20,1,30,24,20,20,20,20,60,60,30,30,0,0,30,0,0,0,30,1,0,0,0,0,0,0,0,0,0,0,0,0,0,0,0,1,0
pun_noise,1,1,1,0,1,29,24,2,2,102,20,1,20,1,23,30,20,20,20,20,60,60,30,30,0,0,30,0,0,0,30,1,0,0,0,0,0,1,0,0,0,0,20,0,0,0,0,0.5,0.5
pun_noise,1,1,1,0,1,29,30,2,3,102,20,1,20,1,24,23,20,20,20,20,60,60,30,30,0,0,30,0,0,0,30,1,0,0,0,0,0,1,0,0,0,0,20,0,0,0,0,0.5,0.5
pun_noise,1,1,1,0,1,30,23,2,1,102,20,1,20,1,30,24,20,20,20,0,60,40,30,20,0,0,30,0,0,0,30,1,0,0,0,0,0,1,0,0,0,0,20,0,0,0,0,1,1
pun_noise,1,1,1,0,1,30,24,2,2,102,20,1,0,0,23,30,20,20,20,20,60,40,30,20,0,0,30,0,0,0,30,1,0,0,0,0,0,1,0,0,0,0,20,0,0,0,0,1,1
pun_noise,1,1,1,0,1,30,30,2,3,102,20,1,20,1,24,23,20,20,0,20,60,40,30,20,0,0,30,0,0,0,30,1,0,0,0,0,0,1,0,0,0,0,20,0,0,0,0,1,1
pun_noise,1,1,1,0,1,31,23,2,1,102,20,1,20,1,30,24,20,20,20,20,60,60,30,30,0,0,30,0,0,0,30,1,0,0,0,0,0,1,0,0,0,0,20,0,0,0,0,0.5,0.5
pun_noise,1,1,1,0,1,31,24,2,2,102,20,1,20,1,23,30,20,20,20,20,60,60,30,30,0,0,30,0,0,0,30,1,0,0,0,0,0,1,0,0,0,0,0,1,1,0,0,1,1
pun_noise,1,1,1,0,1,31,30,2,3,102,20,1,20,1,23,24,20,20,20,20,60,60,30,30,0,0,30,0,0,0,30,1,0,0,0,0,0,1,0,0,0,0,20,0,0,0,0,0.5,0.5
pun_noise,1,1,1,0,1,32,23,2,1,102,20,1,20,1,24,30,20,20,20,20,60,60,30,30,0,0,30,0,0,0,30,1,0,0,0,0,0,1,0,0,0,0,20,0,0,0,0,1,1
pun_noise,1,1,1,0,1,32,24,2,2,102,20,1,20,1,23,30,20,20,20,20,60,60,30,30,0,0,30,0,0,0,30,1,0,0,0,0,0,1,0,0,0,0,20,0,0,0,0,1,1
pun_noise,1,1,1,0,1,32,30,2,3,102,20,1,20,1,23,24,20,20,20,20,60,60,30,30,0,0,30,0,0,0,30,1,0,0,0,0,0,1,0,0,0,0,20,0,0,0,0,1,1
pun_noise,1,1,1,0,1,33,23,2,1,102,20,1,20,1,30,24,20,20,20,20,60,60,30,30,0,0,30,0,0,0,30,1,0,0,0,0,0,1,0,0,0,0,20,0,0,0,0,1,1
pun_noise,1,1,1,0,1,33,24,2,2,102,20,1,20,1,23,30,20,20,20,20,60,60,30,30,0,0,30,0,0,0,30,1,0,0,0,0,0,1,0,0,0,0,20,0,0,0,0,1,1
pun_noise,1,1,1,0,1,33,30,2,3,102,20,1,20,1,23,24,20,20,20,20,60,60,30,30,0,0,30,0,0,0,30,1,0,0,0,0,0,1,0,0,0,0,20,0,0,0,0,1,1
pun_noise,1,1,1,0,1,34,23,2,1,102,20,1,20,1,24,30,0,20,0,20,40,40,20,20,0,0,20,0,0,0,20,1,0,0,0,0,0,1,0,0,0,0,20,0,0,0,0,1,1
pun_noise,1,1,1,0,1,34,24,2,2,102,0,0,0,0,30,23,20,20,20,20,40,40,40,40,0,0,40,0,0,0,40,1,0,0,0,0,0,1,0,0,0,0,20,0,0,0,0,1,1
pun_noise,1,1,1,0,1,34,30,2,3,102,20,1,20,1,24,23,0,20,0,20,40,40,20,20,0,0,20,0,0,0,20,1,0,0,0,0,0,1,0,0,0,0,20,0,0,0,0,1,1
pun_noise,1,1,1,0,1,35,23,2,1,102,20,1,0,0,30,24,20,20,20,20,60,40,30,20,5,15,15,0,0,0,15,1,0,0,0,0,0,1,0,0,0,0,20,0,0,0,0,0.5,0.5
pun_noise,1,1,1,0,1,35,24,2,2,102,20,1,20,1,30,23,20,20,20,0,60,40,30,20,0,0,30,0,0,0,30,1,0,0,0,0,0,0,0,0,0,0,0,0,0,0,0,1,0
pun_noise,1,1,1,0,1,35,30,2,3,102,20,1,20,1,24,23,20,20,20,0,60,40,30,20,0,0,30,0,5,5,25,1,0,0,0,0,0,1,0,0,0,0,20,0,0,0,0,0.5,0.5
pun_noise,1,1,1,0,1,36,23,2,1,102,20,1,20,1,24,30,20,20,20,20,60,60,30,30,0,0,30,0,0,0,30,1,0,5,5,0,0,1,5,5,0,0,0,1,1,5,0,1,1
pun_noise,1,1,1,0,1,36,24,2,2,102,20,1,20,1,23,30,20,20,20,20,60,60,30,30,0,0,30,0,0,0,30,1,0,0,0,0,0,1,0,0,0,0,20,0,0,0,0,0.5,0.5
pun_noise,1,1,1,0,1,36,30,2,3,102,20,1,20,1,24,23,20,20,20,20,60,60,30,30,0,0,30,0,0,0,30,1,0,0,0,0,0,1,0,0,0,0,20,0,0,0,0,0.5,0.5
pun_noise,1,1,1,0,1,37,23,2,1,102,20,1,20,1,30,24,20,20,20,20,60,60,30,30,0,0,30,0,0,0,30,1,0,0,0,0,0,1,0,0,0,0,20,0,0,0,0,1,1
pun_noise,1,1,1,0,1,37,24,2,2,102,20,1,20,1,23,30,20,20,20,20,60,60,30,30,0,0,30,0,0,0,30,1,0,0,0,0,0,1,0,0,0,0,20,0,0,0,0,1,1
pun_noise,1,1,1,0,1,37,30,2,3,102,20,1,20,1,23,24,20,20,20,20,60,60,30,30,0,0,30,0,0,0,30,1,0,0,0,0,0,1,0,0,0,0,20,0,0,0,0,1,1
pun_noise,1,1,1,0,1,38,23,2,1,102,20,1,20,1,30,24,20,20,20,20,60,60,30,30,0,0,30,0,0,0,30,1,0,0,0,0,0,1,0,0,0,0,20,0,0,0,0,1,1
pun_noise,1,1,1,0,1,38,24,2,2,102,20,1,20,1,30,23,20,20,20,20,60,60,30,30,0,0,30,0,0,0,30,1,0,0,0,0,0,1,0,0,0,0,20,0,0,0,0,1,1
pun_noise,1,1,1,0,1,38,30,2,3,102,20,1,20,1,24,23,20,20,20,20,60,60,30,30,0,0,30,0,0,0,30,1,0,0,0,0,0,1,0,0,0,0,20,0,0,0,0,1,1
pun_noise,1,1,1,0,1,39,23,2,1,102,20,1,20,1,24,30,20,20,20,20,60,60,30,30,0,0,30,0,0,0,30,1,0,0,0,0,0,1,0,0,0,0,20,0,0,0,0,1,1
pun_noise,1,1,1,0,1,39,24,2,2,102,20,1,20,1,30,23,20,20,20,20,60,60,30,30,0,0,30,0,0,0,30,1,0,0,0,0,0,1,0,0,0,0,20,0,0,0,0,1,1
pun_noise,1,1,1,0,1,39,30,2,3,102,20,1,20,1,24,23,20,20,20,20,60,60,30,30,0,0,30,0,0,0,30,1,0,0,0,0,0,1,0,0,0,0,20,0,0,0,0,1,1
pun_noise,1,1,1,0,1,40,23,2,1,102,20,1,20,1,24,30,0,20,0,20,40,40,20,20,0,0,20,0,0,0,20,1,0,0,0,0,0,1,0,0,0,0,20,0,0,0,0,1,1
pun_noise,1,1,1,0,1,40,24,2,2,102,0,0,0,0,23,30,20,20,20,20,40,40,40,40,5,15,25,0,0,0,25,1,0,0,0,0,0,1,0,0,0,0,20,0,0,0,0,1,1
pun_noise,1,1,1,0,1,40,30,2,3,102,20,1,20,1,23,24,20,0,20,0,40,40,20,20,0,0,20,0,5,5,15,1,0,0,0,0,0,1,0,0,0,0,20,0,0,0,0,1,1
pun_noise,1,1,1,0,1,41,23,2,1,102,20,1,20,1,30,24,20,20,20,20,60,60,30,30,0,0,30,0,0,0,30,1,0,0,0,0,0,1,0,0,0,0,20,0,0,0,0,0.5,0.5
pun_noise,1,1,1,0,1,41,24,2,2,102,20,1,20,1,23,30,20,20,20,20,60,60,30,30,0,0,30,0,0,0,30,1,0,5,5,0,0,0,0,0,0,0,0,0,0,0,0,1,0
pun_noise,1,1,1,0,1,41,30,2,3,102,20,1,20,1,23,24,20,20,20,20,60,60,30,30,0,0,30,0,0,0,30,1,0,0,0,0,0,1,0,0,0,0,20,0,0,0,0,0.5,0.5
pun_noise,1,1,1,0,1,42,23,2,1,102,20,1,20,1,24,30,20,20,20,20,60,60,30,30,0,0,30,0,0,0,30,1,0,0,0,0,0,1,0,0,0,0,20,0,0,0,0,1,1
pun_noise,1,1,1,0,1,42,24,2,2,102,20,1,20,1,30,23,20,20,20,20,60,60,30,30,0,0,30,0,0,0,30,1,0,0,0,0,0,1,0,0,0,0,20,0,0,0,0,1,1
pun_noise,1,1,1,0,1,42,30,2,3,102,20,1,20,1,24,23,20,20,20,20,60,60,30,30,0,0,30,0,0,0,30,1,0,0,0,0,0,1,0,0,0,0,20,0,0,0,0,1,1
pun_noise,1,1,1,0,1,43,23,2,1,102,20,1,20,1,30,24,20,20,20,20,60,60,30,30,0,0,30,0,0,0,30,1,0,0,0,0,0,1,0,0,0,0,20,0,0,0,0,1,1
pun_noise,1,1,1,0,1,43,24,2,2,102,20,1,20,1,23,30,20,20,20,20,60,60,30,30,0,0,30,0,0,0,30,1,0,0,0,0,0,1,0,0,0,0,20,0,0,0,0,1,1
pun_noise,1,1,1,0,1,43,30,2,3,102,20,1,20,1,23,24,20,20,20,20,60,60,30,30,0,0,30,0,0,0,30,1,0,0,0,0,0,1,0,0,0,0,20,0,0,0,0,1,1
pun_noise,1,1,1,0,1,44,23,2,1,102,20,1,20,1,30,24,20,20,20,20,60,60,30,30,0,0,30,0,0,0,30,1,0,0,0,0,0,1,0,0,0,0,20,0,0,0,0,1,1
pun_noise,1,1,1,0,1,44,24,2,2,102,20,1,20,1,23,30,20,20,20,20,60,60,30,30,0,0,30,0,0,0,30,1,0,0,0,0,0,1,0,0,0,0,20,0,0,0,0,1,1
pun_noise,1,1,1,0,1,44,30,2,3,102,20,1,20,1,23,24,20,20,20,20,60,60,30,30,0,0,30,0,0,0,30,1,0,0,0,0,0,1,0,0,0,0,20,0,0,0,0,1,1
pun_noise,1,1,1,0,1,45,23,2,1,102,0,0,0,0,24,30,20,20,0,20,40,20,40,30,5,15,25,0,0,0,25,1,0,0,0,0,0,1,0,0,0,0,20,0,0,0,0,1,1
pun_noise,1,1,1,0,1,45,24,2,2,102,20,1,0,0,23,30,0,20,0,20,40,20,20,10,5,15,5,0,0,0,5,1,0,0,0,0,0,1,0,0,0,0,20,0,0,0,0,1,1
pun_noise,1,1,1,0,1,45,30,2,3,102,20,1,20,1,24,23,20,0,0,0,40,20,20,10,0,0,20,5,5,10,10,1,0,0,0,0,0,1,0,0,0,0,20,0,0,0,0,1,1
pun_noise,1,1,1,0,1,46,23,2,1,102,20,1,20,1,24,30,20,20,20,20,60,60,30,30,0,0,30,0,0,0,30,1,0,5,5,0,0,0,0,0,0,0,0,0,0,0,0,0.5,0
pun_noise,1,1,1,0,1,46,24,2,2,102,20,1,20,1,30,23,20,20,20,20,60,60,30,30,0,0,30,0,0,0,30,1,0,5,5,0,0,1,5,5,0,0,0,1,1,5,0,0.5,0.5
pun_noise,1,1,1,0,1,46,30,2,3,102,20,1,20,1,24,23,20,20,20,20,60,60,30,30,0,0,30,0,0,0,30,1,0,0,0,0,0,1,0,0,0,0,20,0,0,0,0,0,0
pun_noise,1,1,1,0,1,47,23,2,1,102,20,1,20,1,30,24,20,20,0,20,60,40,30,20,0,0,30,0,0,0,30,1,0,0,0,0,0,1,0,0,0,0,20,0,0,0,0,1,1
pun_noise,1,1,1,0,1,47,24,2,2,102,20,1,20,1,30,23,20,20,0,20,60,40,30,20,0,0,30,0,0,0,30,1,0,0,0,0,0,1,0,0,0,0,20,0,0,0,0,1,1
pun_noise,1,1,1,0,1,47,30,2,3,102,20,1,0,0,23,24,20,20,20,20,60,40,30,20,0,0,30,0,0,0,30,1,0,0,0,0,0,1,0,0,0,0,20,0,0,0,0,1,1
pun_noise,1,1,1,0,1,48,23,2,1,102,20,1,20,1,24,30,20,20,20,20,60,60,30,30,0,0,30,0,0,0,30,1,0,0,0,0,0,1,0,0,0,0,20,0,0,0,0,0.5,0.5
pun_noise,1,1,1,0,1,48,24,2,2,102,20,1,20,1,23,30,20,20,20,20,60,60,30,30,0,0,30,0,0,0,30,1,0,0,0,0,0,1,0,0,0,0,20,0,0,0,0,0.5,0.5
pun_noise,1,1,1,0,1,48,30,2,3,102,20,1,20,1,23,24,20,20,20,20,60,60,30,30,0,0,30,0,0,0,30,1,0,0,0,0,0,1,0,0,0,0,0,1,1,0,0,1,1
pun_noise,1,1,1,0,1,49,23,2,1,102,20,1,20,1,24,30,20,20,20,20,60,60,30,30,0,0,30,0,0,0,30,1,0,0,0,0,0,1,0,0,0,0,20,0,0,0,0,1,1
pun_noise,1,1,1,0,1,49,24,2,2,102,20,1,20,1,30,23,20,20,20,20,60,60,30,30,0,0,30,0,0,0,30,1,0,0,0,0,0,1,0,0,0,0,20,0,0,0,0,1,1
pun_noise,1,1,1,0,1,49,30,2,3,102,20,1,20,1,24,23,20,20,20,20,60,60,30,30,0,0,30,0,0,0,30,1,0,0,0,0,0,1,0,0,0,0,20,0,0,0,0,1,1
pun_noise,1,1,1,0,1,50,23,2,1,102,20,1,20,1,30,24,20,0,20,0,40,40,20,20,0,0,20,0,0,0,20,1,0,0,0,0,0,1,0,0,0,0,20,0,0,0,0,1,1
pun_noise,1,1,1,0,1,50,24,2,2,102,0,0,0,0,23,30,20,20,20,20,40,40,40,40,5,15,25,0,0,0,25,1,0,0,0,0,0,1,0,0,0,0,20,0,0,0,0,1,1
pun_noise,1,1,1,0,1,50,30,2,3,102,20,1,20,1,24,23,0,20,0,20,40,40,20,20,0,0,20,5,0,5,15,1,0,0,0,0,0,1,0,0,0,0,20,0,0,0,0,1,1
pun_noise,1,1,1,0,1,1,3,3,1,103,0,0,0,0,5,18,0,0,0,0,0,0,20,20,1,3,17,0,0,0,17,1,0,,,,,,,,,,,,,,,,
pun_noise,1,1,1,0,1,1,5,3,2,103,0,0,0,0,18,3,0,0,0,0,0,0,20,20,0,0,20,1,1,2,18,1,0,,,,,,,,,,,,,,,,
pun_noise,1,1,1,0,1,1,18,3,3,103,0,0,0,0,3,5,0,0,0,0,0,0,20,20,1,3,17,0,0,0,17,1,0,,,,,,,,,,,,,,,,
pun_noise,1,1,1,0,1,2,3,3,1,103,0,0,0,0,18,5,0,0,0,0,0,0,20,20,0,0,20,2,2,4,16,1,0,1,1,0,0,0,0,0,0,0,0,0,0,0,0,0,0
pun_noise,1,1,1,0,1,2,5,3,2,103,0,0,0,0,3,18,0,0,0,0,0,0,20,20,2,6,14,0,0,0,14,1,0,0,0,0,0,0,0,0,0,0,0,0,0,0,0,0,0
pun_noise,1,1,1,0,1,2,18,3,3,103,0,0,0,0,3,5,0,0,0,0,0,0,20,20,2,6,14,0,0,0,14,1,0,1,1,0,0,0,0,0,0,0,0,0,0,0,0,0,0
pun_noise,1,1,1,0,1,3,3,3,1,103,0,0,0,0,5,18,0,0,0,0,0,0,20,20,2,6,14,0,0,0,14,1,0,0,0,0,0,0,0,0,0,0,0,0,0,0,0,0,0
pun_noise,1,1,1,0,1,3,5,3,2,103,0,0,0,0,3,18,0,0,0,0,0,0,20,20,0,0,20,2,2,4,16,1,0,2,2,0,0,0,0,0,0,0,0,0,0,0,0,0,0
pun_noise,1,1,1,0,1,3,18,3,3,103,0,0,0,0,3,5,0,0,0,0,0,0,20,20,2,6,14,0,0,0,14,1,0,2,2,0,0,0,0,0,0,0,0,0,0,0,0,0,0
pun_noise,1,1,1,0,1,4,3,3,1,103,0,0,0,0,5,18,0,0,0,0,0,0,20,20,0,0,20,0,0,0,20,1,0,2,2,0,0,0,0,0,0,0,0,0,0,0,0,0,0
pun_noise,1,1,1,0,1,4,5,3,2,103,0,0,0,0,3,18,0,0,0,0,0,0,20,20,0,0,20,0,0,0,20,1,0,0,0,0,0,0,0,0,0,0,0,0,0,0,0,0,0
pun_noise,1,1,1,0,1,4,18,3,3,103,0,0,0,0,5,3,0,0,0,0,0,0,20,20,0,0,20,0,0,0,20,1,0,2,2,0,0,0,0,0,0,0,0,0,0,0,0,0,0
pun_noise,1,1,1,0,1,5,3,3,1,103,0,0,0,0,18,5,0,0,0,0,0,0,20,20,3,9,11,0,0,0,11,1,0,0,0,0,0,0,0,0,0,0,0,0,0,0,0,0,0
pun_noise,1,1,1,0,1,5,5,3,2,103,0,0,0,0,18,3,0,0,0,0,0,0,20,20,0,0,20,2,3,5,15,1,0,0,0,0,0,0,0,0,0,0,0,0,0,0,0,0,0
pun_noise,1,1,1,0,1,5,18,3,3,103,0,0,0,0,5,3,0,0,0,0,0,0,20,20,2,6,14,0,0,0,14,1,0,0,0,0,0,0,0,0,0,0,0,0,0,0,0,0,0
pun_noise,1,1,1,0,1,6,3,3,1,103,0,0,0,0,5,18,0,20,0,20,20,20,30,30,4,12,18,3,2,5,13,1,0,3,3,0,0,0,0,0,0,0,0,0,0,0,0,0,0
pun_noise,1,1,1,0,1,6,5,3,2,103,0,0,0,0,18,3,20,0,20,0,20,20,30,30,4,12,18,3,3,6,12,1,0,0,0,0,0,0,0,0,0,0,0,0,0,0,0,0,0
pun_noise,1,1,1,0,1,6,18,3,3,103,20,1,20,1,3,5,0,0,0,0,20,20,10,10,5,15,0,1,1,2,-2,1,0,2,2,0,0,0,0,0,0,0,0,0,0,0,0,0,0
pun_noise,1,1,1,0,1,7,3,3,1,103,0,0,0,0,18,5,0,0,0,0,0,0,20,20,2,6,14,0,0,0,14,1,0,4,4,0,0,0,0,0,0,0,0,0,0,0,0,0.5,0
pun_noise,1,1,1,0,1,7,5,3,2,103,0,0,0,0,3,18,0,0,0,0,0,0,20,20,0,0,20,2,1,3,17,1,0,4,4,0,0,0,0,0,0,0,0,0,0,0,0,0.5,0
pun_noise,1,1,1,0,1,7,18,3,3,103,0,0,0,0,5,3,0,0,0,0,0,0,20,20,1,3,17,0,0,0,17,1,0,5,5,0,0,1,5,5,0,0,20,0,0,0,0,0,0
pun_noise,1,1,1,0,1,8,3,3,1,103,0,0,0,0,18,5,0,0,0,0,0,0,20,20,0,0,20,1,1,2,18,1,0,2,2,0,0,0,0,0,0,0,0,0,0,0,0,0,0
pun_noise,1,1,1,0,1,8,5,3,2,103,0,0,0,0,18,3,0,0,0,0,0,0,20,20,1,3,17,2,0,2,15,1,0,0,0,0,0,0,0,0,0,0,0,0,0,0,0,0,0
pun_noise,1,1,1,0,1,8,18,3,3,103,0,0,0,0,5,3,0,0,0,0,0,0,20,20,3,9,11,0,0,0,11,1,0,1,1,0,0,0,0,0,0,0,0,0,0,0,0,0,0
pun_noise,1,1,1,0,1,9,3,3,1,103,0,0,0,0,5,18,0,0,0,0,0,0,20,20,1,3,17,1,1,2,15,1,0,0,0,0,0,0,0,0,0,0,0,0,0,0,0,0,0
pun_noise,1,1,1,0,1,9,5,3,2,103,0,0,0,0,18,3,0,0,0,0,0,0,20,20,1,3,17,1,1,2,15,1,0,1,1,0,0,0,0,0,0,0,0,0,0,0,0,0,0
pun_noise,1,1,1,0,1,9,18,3,3,103,0,0,0,0,3,5,0,0,0,0,0,0,20,20,2,6,14,0,0,0,14,1,0,3,3,0,0,0,0,0,0,0,0,0,0,0,0,0,0
pun_noise,1,1,1,0,1,10,3,3,1,103,0,0,0,0,5,18,0,0,0,0,0,0,20,20,2,6,14,0,0,0,14,1,0,1,1,0,0,0,0,0,0,0,0,0,0,0,0,0,0
pun_noise,1,1,1,0,1,10,5,3,2,103,0,0,0,0,3,18,0,0,0,0,0,0,20,20,0,0,20,2,2,4,16,1,0,1,1,0,0,0,0,0,0,0,0,0,0,0,0,0,0
pun_noise,1,1,1,0,1,10,18,3,3,103,0,0,0,0,5,3,0,0,0,0,0,0,20,20,2,6,14,0,0,0,14,1,0,2,2,0,0,0,0,0,0,0,0,0,0,0,0,0,0
pun_noise,1,1,1,0,1,11,3,3,1,103,0,0,0,0,18,5,0,0,0,0,0,0,20,20,2,6,14,0,0,0,14,1,0,2,2,0,0,0,0,0,0,0,0,0,0,0,0,0,0
pun_noise,1,1,1,0,1,11,5,3,2,103,0,0,0,0,18,3,0,0,0,0,0,0,20,20,0,0,20,2,2,4,16,1,0,0,0,0,0,0,0,0,0,0,0,0,0,0,0,0,0
pun_noise,1,1,1,0,1,11,18,3,3,103,0,0,0,0,3,5,0,0,0,0,0,0,20,20,2,6,14,0,0,0,14,1,0,2,2,0,0,0,0,0,0,0,0,0,0,0,0,0,0
pun_noise,1,1,1,0,1,12,3,3,1,103,0,0,0,0,18,5,0,0,0,0,0,0,20,20,0,0,20,0,0,0,20,1,0,2,2,0,0,0,0,0,0,0,0,0,0,0,0,0,0
pun_noise,1,1,1,0,1,12,5,3,2,103,0,0,0,0,18,3,0,0,0,0,0,0,20,20,0,0,20,0,0,0,20,1,0,0,0,0,0,0,0,0,0,0,0,0,0,0,0,0,0
pun_noise,1,1,1,0,1,12,18,3,3,103,0,0,0,0,3,5,0,0,0,0,0,0,20,20,0,0,20,0,0,0,20,1,0,2,2,0,0,0,0,0,0,0,0,0,0,0,0,0,0
pun_noise,1,1,1,0,1,13,3,3,1,103,0,0,0,0,18,5,0,0,0,0,0,0,20,20,0,0,20,0,0,0,20,1,0,0,0,0,0,0,0,0,0,0,0,0,0,0,0,0,0
pun_noise,1,1,1,0,1,13,5,3,2,103,0,0,0,0,3,18,0,0,0,0,0,0,20,20,0,0,20,0,0,0,20,1,0,0,0,0,0,0,0,0,0,0,0,0,0,0,0,0,0
pun_noise,1,1,1,0,1,13,18,3,3,103,0,0,0,0,5,3,0,0,0,0,0,0,20,20,0,0,20,0,0,0,20,1,0,0,0,0,0,0,0,0,0,0,0,0,0,0,0,0,0
pun_noise,1,1,1,0,1,14,3,3,1,103,0,0,0,0,18,5,0,0,0,0,0,0,20,20,0,0,20,0,0,0,20,1,0,0,0,0,0,0,0,0,0,0,0,0,0,0,0,0,0
pun_noise,1,1,1,0,1,14,5,3,2,103,0,0,0,0,18,3,0,0,0,0,0,0,20,20,0,0,20,0,0,0,20,1,0,0,0,0,0,0,0,0,0,0,0,0,0,0,0,0,0
pun_noise,1,1,1,0,1,14,18,3,3,103,0,0,0,0,5,3,0,0,0,0,0,0,20,20,0,0,20,0,0,0,20,1,0,0,0,0,0,0,0,0,0,0,0,0,0,0,0,0,0
pun_noise,1,1,1,0,1,15,3,3,1,103,0,0,0,0,5,18,0,0,0,0,0,0,20,20,0,0,20,0,0,0,20,1,0,0,0,0,0,0,0,0,0,0,0,0,0,0,0,0,0
pun_noise,1,1,1,0,1,15,5,3,2,103,0,0,0,0,18,3,0,0,0,0,0,0,20,20,0,0,20,0,0,0,20,1,0,0,0,0,0,0,0,0,0,0,0,0,0,0,0,0,0
pun_noise,1,1,1,0,1,15,18,3,3,103,0,0,0,0,5,3,0,0,0,0,0,0,20,20,0,0,20,0,0,0,20,1,0,0,0,0,0,0,0,0,0,0,0,0,0,0,0,0,0
pun_noise,1,1,1,0,1,16,3,3,1,103,0,0,0,0,18,5,0,0,0,0,0,0,20,20,0,0,20,0,0,0,20,1,0,0,0,0,0,0,0,0,0,0,0,0,0,0,0,0,0
pun_noise,1,1,1,0,1,16,5,3,2,103,0,0,0,0,18,3,0,0,0,0,0,0,20,20,0,0,20,0,0,0,20,1,0,0,0,0,0,0,0,0,0,0,0,0,0,0,0,0,0
pun_noise,1,1,1,0,1,16,18,3,3,103,0,0,0,0,3,5,0,0,0,0,0,0,20,20,0,0,20,0,0,0,20,1,0,0,0,0,0,0,0,0,0,0,0,0,0,0,0,0,0
pun_noise,1,1,1,0,1,17,3,3,1,103,0,0,0,0,5,18,0,0,0,0,0,0,20,20,0,0,20,0,0,0,20,1,0,0,0,0,0,0,0,0,0,0,0,0,0,0,0,0,0
pun_noise,1,1,1,0,1,17,5,3,2,103,0,0,0,0,18,3,0,0,0,0,0,0,20,20,0,0,20,0,0,0,20,1,0,0,0,0,0,0,0,0,0,0,0,0,0,0,0,0,0
pun_noise,1,1,1,0,1,17,18,3,3,103,0,0,0,0,3,5,0,0,0,0,0,0,20,20,0,0,20,0,0,0,20,1,0,0,0,0,0,0,0,0,0,0,0,0,0,0,0,0,0
pun_noise,1,1,1,0,1,18,3,3,1,103,0,0,0,0,5,18,0,0,0,0,0,0,20,20,1,3,17,0,0,0,17,1,0,0,0,0,0,0,0,0,0,0,0,0,0,0,0,0,0
pun_noise,1,1,1,0,1,18,5,3,2,103,0,0,0,0,18,3,0,0,0,0,0,0,20,20,0,0,20,1,1,2,18,1,0,0,0,0,0,0,0,0,0,0,0,0,0,0,0,0,0
pun_noise,1,1,1,0,1,18,18,3,3,103,0,0,0,0,5,3,0,0,0,0,0,0,20,20,1,3,17,0,0,0,17,1,0,0,0,0,0,0,0,0,0,0,0,0,0,0,0,0,0
pun_noise,1,1,1,0,1,19,3,3,1,103,0,0,0,0,5,18,0,0,0,0,0,0,20,20,0,0,20,1,0,1,19,1,0,1,1,0,0,0,0,0,0,0,0,0,0,0,0,0,0
pun_noise,1,1,1,0,1,19,5,3,2,103,0,0,0,0,18,3,0,0,0,0,0,0,20,20,1,3,17,0,0,0,17,1,0,0,0,0,0,0,0,0,0,0,0,0,0,0,0,0,0
pun_noise,1,1,1,0,1,19,18,3,3,103,0,0,0,0,5,3,0,0,0,0,0,0,20,20,0,0,20,0,0,0,20,1,0,1,1,0,0,0,0,0,0,0,0,0,0,0,0,0,0
pun_noise,1,1,1,0,1,20,3,3,1,103,0,0,0,0,18,5,0,0,0,0,0,0,20,20,1,3,17,1,0,1,16,1,0,0,0,0,0,0,0,0,0,0,0,0,0,0,0,0,0
pun_noise,1,1,1,0,1,20,5,3,2,103,0,0,0,0,3,18,0,0,0,0,0,0,20,20,0,0,20,1,1,2,18,1,0,1,1,0,0,0,0,0,0,0,0,0,0,0,0,0,0
pun_noise,1,1,1,0,1,20,18,3,3,103,0,0,0,0,5,3,0,0,0,0,0,0,20,20,2,6,14,0,0,0,14,1,0,0,0,0,0,0,0,0,0,0,0,0,0,0,0,0,0
pun_noise,1,1,1,0,1,21,3,3,1,103,0,0,0,0,18,5,0,0,0,0,0,0,20,20,3,9,11,0,1,1,10,1,0,1,1,0,0,0,0,0,0,0,0,0,0,0,0,0,0
pun_noise,1,1,1,0,1,21,5,3,2,103,0,0,0,0,3,18,0,0,0,0,0,0,20,20,1,3,17,3,3,6,11,1,0,0,0,0,0,0,0,0,0,0,0,0,0,0,0,0,0
pun_noise,1,1,1,0,1,21,18,3,3,103,0,0,0,0,3,5,0,0,0,0,0,0,20,20,3,9,11,0,0,0,11,1,0,2,2,0,0,0,0,0,0,0,0,0,0,0,0,0,0
pun_noise,1,1,1,0,1,22,3,3,1,103,0,0,0,0,5,18,0,0,0,0,0,0,20,20,4,12,8,0,0,0,8,1,0,3,3,0,0,0,0,0,0,0,0,0,0,0,0,0,0
pun_noise,1,1,1,0,1,22,5,3,2,103,0,0,0,0,3,18,0,0,0,0,0,0,20,20,0,0,20,4,4,8,12,1,0,1,1,0,0,0,0,0,0,0,0,0,0,0,0,0,0
pun_noise,1,1,1,0,1,22,18,3,3,103,0,0,0,0,3,5,0,0,0,0,0,0,20,20,4,12,8,0,0,0,8,1,0,3,3,0,0,0,0,0,0,0,0,0,0,0,0,0,0
pun_noise,1,1,1,0,1,23,3,3,1,103,0,0,0,0,5,18,0,0,0,0,0,0,20,20,0,0,20,0,0,0,20,1,0,4,4,0,0,0,0,0,0,0,0,0,0,0,0,0,0
pun_noise,1,1,1,0,1,23,5,3,2,103,0,0,0,0,3,18,0,0,0,0,0,0,20,20,0,0,20,0,0,0,20,1,0,0,0,0,0,0,0,0,0,0,0,0,0,0,0,0,0
pun_noise,1,1,1,0,1,23,18,3,3,103,0,0,0,0,5,3,0,0,0,0,0,0,20,20,0,0,20,0,0,0,20,1,0,4,4,0,0,0,0,0,0,0,0,0,0,0,0,0,0
pun_noise,1,1,1,0,1,24,3,3,1,103,0,0,0,0,18,5,0,0,0,0,0,0,20,20,0,0,20,0,0,0,20,1,0,0,0,0,0,0,0,0,0,0,0,0,0,0,0,0,0
pun_noise,1,1,1,0,1,24,5,3,2,103,0,0,0,0,3,18,0,0,0,0,0,0,20,20,0,0,20,0,0,0,20,1,0,0,0,0,0,0,0,0,0,0,0,0,0,0,0,0,0
pun_noise,1,1,1,0,1,24,18,3,3,103,0,0,0,0,5,3,0,0,0,0,0,0,20,20,0,0,20,0,0,0,20,1,0,0,0,0,0,0,0,0,0,0,0,0,0,0,0,0,0
pun_noise,1,1,1,0,1,25,3,3,1,103,0,0,0,0,5,18,0,0,0,0,0,0,20,20,0,0,20,0,0,0,20,1,0,0,0,0,0,0,0,0,0,0,0,0,0,0,0,0,0
pun_noise,1,1,1,0,1,25,5,3,2,103,0,0,0,0,18,3,0,0,0,0,0,0,20,20,0,0,20,0,0,0,20,1,0,0,0,0,0,0,0,0,0,0,0,0,0,0,0,0,0
pun_noise,1,1,1,0,1,25,18,3,3,103,0,0,0,0,3,5,0,0,0,0,0,0,20,20,0,0,20,0,0,0,20,1,0,0,0,0,0,0,0,0,0,0,0,0,0,0,0,0,0
pun_noise,1,1,1,0,1,26,3,3,1,103,0,0,0,0,18,5,0,0,0,0,0,0,20,20,0,0,20,0,0,0,20,1,0,0,0,0,0,0,0,0,0,0,0,0,0,0,0,0,0
pun_noise,1,1,1,0,1,26,5,3,2,103,0,0,0,0,3,18,0,0,0,0,0,0,20,20,0,0,20,0,0,0,20,1,0,0,0,0,0,0,0,0,0,0,0,0,0,0,0,0,0
pun_noise,1,1,1,0,1,26,18,3,3,103,0,0,0,0,5,3,0,0,0,0,0,0,20,20,0,0,20,0,0,0,20,1,0,0,0,0,0,0,0,0,0,0,0,0,0,0,0,0,0
pun_noise,1,1,1,0,1,27,3,3,1,103,0,0,0,0,18,5,0,0,0,0,0,0,20,20,0,0,20,0,0,0,20,1,0,0,0,0,0,0,0,0,0,0,0,0,0,0,0,0,0
pun_noise,1,1,1,0,1,27,5,3,2,103,0,0,0,0,3,18,0,0,0,0,0,0,20,20,0,0,20,0,0,0,20,1,0,0,0,0,0,0,0,0,0,0,0,0,0,0,0,0,0
pun_noise,1,1,1,0,1,27,18,3,3,103,0,0,0,0,5,3,0,0,0,0,0,0,20,20,0,0,20,0,0,0,20,1,0,0,0,0,0,0,0,0,0,0,0,0,0,0,0,0,0
pun_noise,1,1,1,0,1,28,3,3,1,103,0,0,0,0,5,18,0,0,0,0,0,0,20,20,0,0,20,0,0,0,20,1,0,0,0,0,0,0,0,0,0,0,0,0,0,0,0,0,0
pun_noise,1,1,1,0,1,28,5,3,2,103,0,0,0,0,18,3,0,0,0,0,0,0,20,20,0,0,20,0,0,0,20,1,0,0,0,0,0,0,0,0,0,0,0,0,0,0,0,0,0
pun_noise,1,1,1,0,1,28,18,3,3,103,0,0,0,0,5,3,0,0,0,0,0,0,20,20,0,0,20,0,0,0,20,1,0,0,0,0,0,0,0,0,0,0,0,0,0,0,0,0,0
pun_noise,1,1,1,0,1,29,3,3,1,103,0,0,0,0,18,5,0,0,0,0,0,0,20,20,0,0,20,0,0,0,20,1,0,0,0,0,0,0,0,0,0,0,0,0,0,0,0,0,0
pun_noise,1,1,1,0,1,29,5,3,2,103,0,0,0,0,18,3,0,0,0,0,0,0,20,20,0,0,20,0,0,0,20,1,0,0,0,0,0,0,0,0,0,0,0,0,0,0,0,0,0
pun_noise,1,1,1,0,1,29,18,3,3,103,0,0,0,0,5,3,0,0,0,0,0,0,20,20,0,0,20,0,0,0,20,1,0,0,0,0,0,0,0,0,0,0,0,0,0,0,0,0,0
pun_noise,1,1,1,0,1,30,3,3,1,103,0,0,0,0,18,5,0,0,0,0,0,0,20,20,0,0,20,0,0,0,20,1,0,0,0,0,0,0,0,0,0,0,0,0,0,0,0,0,0
pun_noise,1,1,1,0,1,30,5,3,2,103,0,0,0,0,18,3,0,0,0,0,0,0,20,20,0,0,20,0,0,0,20,1,0,0,0,0,0,0,0,0,0,0,0,0,0,0,0,0,0
pun_noise,1,1,1,0,1,30,18,3,3,103,0,0,0,0,3,5,0,0,0,0,0,0,20,20,0,0,20,0,0,0,20,1,0,0,0,0,0,0,0,0,0,0,0,0,0,0,0,0,0
pun_noise,1,1,1,0,1,31,3,3,1,103,0,0,0,0,18,5,0,0,0,0,0,0,20,20,5,15,5,0,0,0,5,1,0,0,0,0,0,0,0,0,0,0,0,0,0,0,0,0,0
pun_noise,1,1,1,0,1,31,5,3,2,103,0,0,0,0,18,3,0,0,0,0,0,0,20,20,0,0,20,5,5,10,10,1,0,0,0,0,0,0,0,0,0,0,0,0,0,0,0,0,0
pun_noise,1,1,1,0,1,31,18,3,3,103,0,0,0,0,3,5,0,0,0,0,0,0,20,20,5,15,5,0,0,0,5,1,0,0,0,0,0,0,0,0,0,0,0,0,0,0,0,0,0
pun_noise,1,1,1,0,1,32,3,3,1,103,0,0,0,0,5,18,0,0,0,0,0,0,20,20,0,0,20,0,0,0,20,1,0,5,5,0,0,0,0,0,0,0,0,0,0,0,0,0,0
pun_noise,1,1,1,0,1,32,5,3,2,103,0,0,0,0,3,18,0,0,0,0,0,0,20,20,0,0,20,0,0,0,20,1,0,0,0,0,0,0,0,0,0,0,0,0,0,0,0,0,0
pun_noise,1,1,1,0,1,32,18,3,3,103,0,0,0,0,5,3,0,0,0,0,0,0,20,20,0,0,20,0,0,0,20,1,0,5,5,0,0,0,0,0,0,0,0,0,0,0,0,0,0
pun_noise,1,1,1,0,1,33,3,3,1,103,0,0,0,0,18,5,0,0,0,0,0,0,20,20,0,0,20,0,0,0,20,1,0,0,0,0,0,0,0,0,0,0,0,0,0,0,0,0,0
pun_noise,1,1,1,0,1,33,5,3,2,103,0,0,0,0,18,3,0,0,0,0,0,0,20,20,0,0,20,0,0,0,20,1,0,0,0,0,0,0,0,0,0,0,0,0,0,0,0,0,0
pun_noise,1,1,1,0,1,33,18,3,3,103,0,0,0,0,3,5,0,0,0,0,0,0,20,20,0,0,20,0,0,0,20,1,0,0,0,0,0,0,0,0,0,0,0,0,0,0,0,0,0
pun_noise,1,1,1,0,1,34,3,3,1,103,0,0,0,0,18,5,0,0,0,0,0,0,20,20,0,0,20,0,0,0,20,1,0,0,0,0,0,0,0,0,0,0,0,0,0,0,0,0,0
pun_noise,1,1,1,0,1,34,5,3,2,103,0,0,0,0,3,18,0,0,0,0,0,0,20,20,0,0,20,0,0,0,20,1,0,0,0,0,0,0,0,0,0,0,0,0,0,0,0,0,0
pun_noise,1,1,1,0,1,34,18,3,3,103,0,0,0,0,3,5,0,0,0,0,0,0,20,20,0,0,20,0,0,0,20,1,0,0,0,0,0,0,0,0,0,0,0,0,0,0,0,0,0
pun_noise,1,1,1,0,1,35,3,3,1,103,0,0,0,0,5,18,0,0,0,0,0,0,20,20,0,0,20,0,0,0,20,1,0,0,0,0,0,0,0,0,0,0,0,0,0,0,0,0,0
pun_noise,1,1,1,0,1,35,5,3,2,103,0,0,0,0,3,18,0,0,0,0,0,0,20,20,0,0,20,0,0,0,20,1,0,0,0,0,0,0,0,0,0,0,0,0,0,0,0,0,0
pun_noise,1,1,1,0,1,35,18,3,3,103,0,0,0,0,5,3,0,0,0,0,0,0,20,20,0,0,20,0,0,0,20,1,0,0,0,0,0,0,0,0,0,0,0,0,0,0,0,0,0
pun_noise,1,1,1,0,1,36,3,3,1,103,0,0,0,0,18,5,0,0,0,0,0,0,20,20,0,0,20,0,0,0,20,1,0,0,0,0,0,0,0,0,0,0,0,0,0,0,0,0,0
pun_noise,1,1,1,0,1,36,5,3,2,103,0,0,0,0,3,18,0,0,0,0,0,0,20,20,0,0,20,0,0,0,20,1,0,0,0,0,0,0,0,0,0,0,0,0,0,0,0,0,0
pun_noise,1,1,1,0,1,36,18,3,3,103,0,0,0,0,5,3,0,0,0,0,0,0,20,20,0,0,20,0,0,0,20,1,0,0,0,0,0,0,0,0,0,0,0,0,0,0,0,0,0
pun_noise,1,1,1,0,1,37,3,3,1,103,0,0,0,0,18,5,0,0,0,0,0,0,20,20,0,0,20,0,0,0,20,1,0,0,0,0,0,0,0,0,0,0,0,0,0,0,0,0,0
pun_noise,1,1,1,0,1,37,5,3,2,103,0,0,0,0,3,18,0,0,0,0,0,0,20,20,0,0,20,0,0,0,20,1,0,0,0,0,0,0,0,0,0,0,0,0,0,0,0,0,0
pun_noise,1,1,1,0,1,37,18,3,3,103,0,0,0,0,5,3,0,0,0,0,0,0,20,20,0,0,20,0,0,0,20,1,0,0,0,0,0,0,0,0,0,0,0,0,0,0,0,0,0
pun_noise,1,1,1,0,1,38,3,3,1,103,0,0,0,0,18,5,0,0,0,0,0,0,20,20,0,0,20,0,0,0,20,1,0,0,0,0,0,0,0,0,0,0,0,0,0,0,0,0,0
pun_noise,1,1,1,0,1,38,5,3,2,103,0,0,0,0,18,3,0,0,0,0,0,0,20,20,0,0,20,0,0,0,20,1,0,0,0,0,0,0,0,0,0,0,0,0,0,0,0,0,0
pun_noise,1,1,1,0,1,38,18,3,3,103,0,0,0,0,3,5,0,0,0,0,0,0,20,20,0,0,20,0,0,0,20,1,0,0,0,0,0,0,0,0,0,0,0,0,0,0,0,0,0
pun_noise,1,1,1,0,1,39,3,3,1,103,0,0,0,0,18,5,0,0,0,0,0,0,20,20,0,0,20,0,0,0,20,1,0,0,0,0,0,0,0,0,0,0,0,0,0,0,0,0,0
pun_noise,1,1,1,0,1,39,5,3,2,103,0,0,0,0,18,3,0,0,0,0,0,0,20,20,0,0,20,0,0,0,20,1,0,0,0,0,0,0,0,0,0,0,0,0,0,0,0,0,0
pun_noise,1,1,1,0,1,39,18,3,3,103,0,0,0,0,3,5,0,0,0,0,0,0,20,20,0,0,20,0,0,0,20,1,0,0,0,0,0,0,0,0,0,0,0,0,0,0,0,0,0
pun_noise,1,1,1,0,1,40,3,3,1,103,0,0,0,0,5,18,0,0,0,0,0,0,20,20,0,0,20,0,0,0,20,1,0,0,0,0,0,0,0,0,0,0,0,0,0,0,0,0,0
pun_noise,1,1,1,0,1,40,5,3,2,103,0,0,0,0,3,18,0,0,0,0,0,0,20,20,0,0,20,0,0,0,20,1,0,0,0,0,0,0,0,0,0,0,0,0,0,0,0,0,0
pun_noise,1,1,1,0,1,40,18,3,3,103,0,0,0,0,5,3,0,0,0,0,0,0,20,20,0,0,20,0,0,0,20,1,0,0,0,0,0,0,0,0,0,0,0,0,0,0,0,0,0
pun_noise,1,1,1,0,1,41,3,3,1,103,0,0,0,0,5,18,0,0,0,0,0,0,20,20,0,0,20,0,0,0,20,1,0,0,0,0,0,0,0,0,0,0,0,0,0,0,0,0,0
pun_noise,1,1,1,0,1,41,5,3,2,103,0,0,0,0,18,3,0,0,0,0,0,0,20,20,0,0,20,0,0,0,20,1,0,0,0,0,0,0,0,0,0,0,0,0,0,0,0,0,0
pun_noise,1,1,1,0,1,41,18,3,3,103,0,0,0,0,5,3,0,0,0,0,0,0,20,20,0,0,20,0,0,0,20,1,0,0,0,0,0,0,0,0,0,0,0,0,0,0,0,0,0
pun_noise,1,1,1,0,1,42,3,3,1,103,0,0,0,0,18,5,0,0,0,0,0,0,20,20,0,0,20,0,0,0,20,1,0,0,0,0,0,0,0,0,0,0,0,0,0,0,0,0,0
pun_noise,1,1,1,0,1,42,5,3,2,103,0,0,0,0,18,3,0,0,0,0,0,0,20,20,0,0,20,0,0,0,20,1,0,0,0,0,0,0,0,0,0,0,0,0,0,0,0,0,0
pun_noise,1,1,1,0,1,42,18,3,3,103,0,0,0,0,5,3,0,0,0,0,0,0,20,20,0,0,20,0,0,0,20,1,0,0,0,0,0,0,0,0,0,0,0,0,0,0,0,0,0
pun_noise,1,1,1,0,1,43,3,3,1,103,0,0,0,0,5,18,0,0,0,0,0,0,20,20,0,0,20,0,0,0,20,1,0,0,0,0,0,0,0,0,0,0,0,0,0,0,0,0,0
pun_noise,1,1,1,0,1,43,5,3,2,103,0,0,0,0,18,3,0,0,0,0,0,0,20,20,0,0,20,0,0,0,20,1,0,0,0,0,0,0,0,0,0,0,0,0,0,0,0,0,0
pun_noise,1,1,1,0,1,43,18,3,3,103,0,0,0,0,3,5,0,0,0,0,0,0,20,20,0,0,20,0,0,0,20,1,0,0,0,0,0,0,0,0,0,0,0,0,0,0,0,0,0
pun_noise,1,1,1,0,1,44,3,3,1,103,0,0,0,0,18,5,0,0,0,0,0,0,20,20,2,6,14,0,0,0,14,1,0,0,0,0,0,0,0,0,0,0,0,0,0,0,0,0,0
pun_noise,1,1,1,0,1,44,5,3,2,103,0,0,0,0,18,3,0,0,0,0,0,0,20,20,2,6,14,0,0,0,14,1,0,0,0,0,0,0,0,0,0,0,0,0,0,0,0,0,0
pun_noise,1,1,1,0,1,44,18,3,3,103,0,0,0,0,5,3,0,0,0,0,0,0,20,20,0,0,20,2,2,4,16,1,0,0,0,0,0,0,0,0,0,0,0,0,0,0,0,0,0
pun_noise,1,1,1,0,1,45,3,3,1,103,0,0,0,0,5,18,0,0,0,0,0,0,20,20,7,21,0,0,0,0,0,1,0,2,2,0,0,0,0,0,0,0,0,0,0,0,0,0,0
pun_noise,1,1,1,0,1,45,5,3,2,103,0,0,0,0,3,18,0,0,0,0,0,0,20,20,2,6,14,5,5,10,4,1,0,2,2,0,0,0,0,0,0,0,0,0,0,0,0,0,0
pun_noise,1,1,1,0,1,45,18,3,3,103,0,0,0,0,3,5,0,0,0,0,0,0,20,20,5,15,5,2,2,4,1,1,0,0,0,0,0,0,0,0,0,0,0,0,0,0,0,0,0
pun_noise,1,1,1,0,1,46,3,3,1,103,0,0,0,0,18,5,0,0,0,0,0,0,20,20,4,12,8,0,0,0,8,1,0,7,7,0,0,0,0,0,0,0,0,0,0,0,0,0,0
pun_noise,1,1,1,0,1,46,5,3,2,103,0,0,0,0,18,3,0,0,0,0,0,0,20,20,2,6,14,2,2,4,10,1,0,2,2,0,0,0,0,0,0,0,0,0,0,0,0,0,0
pun_noise,1,1,1,0,1,46,18,3,3,103,0,0,0,0,5,3,0,0,0,0,0,0,20,20,2,6,14,2,2,4,10,1,0,5,5,0,0,0,0,0,0,0,0,0,0,0,0,0,0
pun_noise,1,1,1,0,1,47,3,3,1,103,0,0,0,0,5,18,0,0,0,0,0,0,20,20,5,15,5,0,0,0,5,1,0,4,4,0,0,0,0,0,0,0,0,0,0,0,0,0,0
pun_noise,1,1,1,0,1,47,5,3,2,103,0,0,0,0,18,3,0,0,0,0,0,0,20,20,2,6,14,5,3,8,6,1,0,2,2,0,0,0,0,0,0,0,0,0,0,0,0,0,0
pun_noise,1,1,1,0,1,47,18,3,3,103,0,0,0,0,5,3,0,0,0,0,0,0,20,20,5,15,5,2,2,4,1,1,0,2,2,0,0,0,0,0,0,0,0,0,0,0,0,0,0
pun_noise,1,1,1,0,1,48,3,3,1,103,0,0,0,0,18,5,0,0,0,0,0,0,20,20,8,24,0,1,1,2,-2,1,0,5,5,0,0,0,0,0,0,0,0,0,0,0,0,0,0
pun_noise,1,1,1,0,1,48,5,3,2,103,0,0,0,0,18,3,0,0,0,0,0,0,20,20,6,18,2,5,3,8,-6,1,0,2,2,0,0,0,0,0,0,0,0,0,0,0,0,0,0
pun_noise,1,1,1,0,1,48,18,3,3,103,0,0,0,0,3,5,0,0,0,0,0,0,20,20,6,18,2,5,5,10,-8,1,0,5,5,0,0,0,0,0,0,0,0,0,0,0,0,0,0
pun_noise,1,1,1,0,1,49,3,3,1,103,0,0,0,0,18,5,0,0,0,0,0,0,20,20,5,15,5,0,0,0,5,1,0,8,8,0,0,0,0,0,0,0,0,0,0,0,0,0,0
pun_noise,1,1,1,0,1,49,5,3,2,103,0,0,0,0,3,18,0,0,0,0,0,0,20,20,0,0,20,5,5,10,10,1,0,6,6,0,0,0,0,0,0,0,0,0,0,0,0,0,0
pun_noise,1,1,1,0,1,49,18,3,3,103,0,0,0,0,3,5,0,0,0,0,0,0,20,20,5,15,5,0,0,0,5,1,0,6,6,0,0,0,0,0,0,0,0,0,0,0,0,0,0
pun_noise,1,1,1,0,1,50,3,3,1,103,0,0,0,0,5,18,0,0,0,0,0,0,20,20,8,24,0,0,0,0,0,1,0,5,5,0,0,0,0,0,0,0,0,0,0,0,0,0,0
pun_noise,1,1,1,0,1,50,5,3,2,103,0,0,0,0,18,3,0,0,0,0,0,0,20,20,5,15,5,5,3,8,-3,1,0,0,0,0,0,0,0,0,0,0,0,0,0,0,0,0,0
pun_noise,1,1,1,0,1,50,18,3,3,103,0,0,0,0,5,3,0,0,0,0,0,0,20,20,5,15,5,5,5,10,-5,1,0,5,5,0,0,0,0,0,0,0,0,0,0,0,0,0,0
pun_noise,1,1,1,0,1,1,6,4,1,104,20,1,20,1,10,9,20,0,20,0,40,40,20,20,1,3,17,0,5,5,12,1,0,,,,,,,,,,,,,,,,
pun_noise,1,1,1,0,1,1,9,4,2,104,0,0,0,0,6,10,20,20,20,20,40,40,40,40,5,15,25,1,1,2,23,1,0,,,,,,,,,,,,,,,,
pun_noise,1,1,1,0,1,1,10,4,3,104,20,1,20,1,9,6,0,20,0,20,40,40,20,20,1,3,17,0,0,0,17,1,0,,,,,,,,,,,,,,,,
pun_noise,1,1,1,0,1,2,6,4,1,104,20,1,20,1,10,9,20,0,20,0,40,40,20,20,0,0,20,0,5,5,15,1,0,1,1,0,0,1,1,1,0,0,20,0,0,0,0,0.5,0.5
pun_noise,1,1,1,0,1,2,9,4,2,104,0,0,0,0,10,6,20,20,20,20,40,40,40,40,10,30,10,0,0,0,10,1,0,5,5,0,0,0,0,0,0,0,0,0,0,0,0,1,0
pun_noise,1,1,1,0,1,2,10,4,3,104,20,1,20,1,6,9,20,0,20,0,40,40,20,20,0,0,20,0,5,5,15,1,0,1,1,0,0,1,1,1,0,0,20,0,0,0,0,0.5,0.5
pun_noise,1,1,1,0,1,3,6,4,1,104,20,1,20,1,9,10,20,20,20,20,60,60,30,30,0,0,30,0,0,0,30,1,0,0,0,0,0,1,0,0,0,0,20,0,0,0,0,0.5,0.5
pun_noise,1,1,1,0,1,3,9,4,2,104,20,1,20,1,10,6,20,20,20,20,60,60,30,30,0,0,30,0,0,0,30,1,0,10,10,0,0,0,0,0,0,0,0,0,0,0,0,1,0
pun_noise,1,1,1,0,1,3,10,4,3,104,20,1,20,1,6,9,20,20,20,20,60,60,30,30,0,0,30,0,0,0,30,1,0,0,0,0,0,1,0,0,0,0,20,0,0,0,0,0.5,0.5
pun_noise,1,1,1,0,1,4,6,4,1,104,20,1,20,1,10,9,20,20,20,20,60,60,30,30,0,0,30,0,0,0,30,1,0,0,0,0,0,1,0,0,0,0,20,0,0,0,0,1,1
pun_noise,1,1,1,0,1,4,9,4,2,104,20,1,20,1,6,10,20,20,20,20,60,60,30,30,0,0,30,0,0,0,30,1,0,0,0,0,0,1,0,0,0,0,20,0,0,0,0,1,1
pun_noise,1,1,1,0,1,4,10,4,3,104,20,1,20,1,6,9,20,20,20,20,60,60,30,30,0,0,30,0,0,0,30,1,0,0,0,0,0,1,0,0,0,0,20,0,0,0,0,1,1
pun_noise,1,1,1,0,1,5,6,4,1,104,20,1,20,1,10,9,20,20,20,20,60,60,30,30,0,0,30,0,0,0,30,1,0,0,0,0,0,1,0,0,0,0,20,0,0,0,0,1,1
pun_noise,1,1,1,0,1,5,9,4,2,104,20,1,20,1,10,6,20,20,20,20,60,60,30,30,0,0,30,0,0,0,30,1,0,0,0,0,0,1,0,0,0,0,20,0,0,0,0,1,1
pun_noise,1,1,1,0,1,5,10,4,3,104,20,1,20,1,6,9,20,20,20,20,60,60,30,30,0,0,30,0,0,0,30,1,0,0,0,0,0,1,0,0,0,0,20,0,0,0,0,1,1
pun_noise,1,1,1,0,1,6,6,4,1,104,20,1,0,0,10,9,20,0,20,0,40,20,20,10,5,15,5,0,0,0,5,1,0,0,0,0,0,1,0,0,0,0,20,0,0,0,0,1,1
pun_noise,1,1,1,0,1,6,9,4,2,104,0,0,0,0,10,6,20,20,20,0,40,20,40,30,0,0,40,0,5,5,35,1,0,0,0,0,0,1,0,0,0,0,20,0,0,0,0,1,1
pun_noise,1,1,1,0,1,6,10,4,3,104,20,1,20,1,9,6,0,20,0,0,40,20,20,10,0,0,20,0,0,0,20,1,0,0,0,0,0,1,0,0,0,0,20,0,0,0,0,1,1
pun_noise,1,1,1,0,1,7,6,4,1,104,20,1,20,1,10,9,20,0,20,0,40,40,20,20,0,0,20,0,0,0,20,1,0,5,5,0,0,1,5,5,0,0,0,1,1,5,0,0.5,0.5
pun_noise,1,1,1,0,1,7,9,4,2,104,0,0,0,0,10,6,20,20,20,20,40,40,40,40,3,9,31,0,0,0,31,1,0,0,0,0,0,0,0,0,0,0,0,0,0,0,0,0.5,0
pun_noise,1,1,1,0,1,7,10,4,3,104,20,1,20,1,6,9,20,0,20,0,40,40,20,20,0,0,20,0,3,3,17,1,0,0,0,0,0,1,0,0,0,0,20,0,0,0,0,0,0
pun_noise,1,1,1,0,1,8,6,4,1,104,20,1,20,1,10,9,20,0,20,0,40,40,20,20,0,0,20,0,5,5,15,1,0,0,0,0,0,1,0,0,0,0,20,0,0,0,0,0.5,0.5
pun_noise,1,1,1,0,1,8,9,4,2,104,0,0,0,0,10,6,20,20,20,20,40,40,40,40,5,15,25,0,0,0,25,1,0,3,3,0,0,0,0,0,0,0,0,0,0,0,0,1,0
pun_noise,1,1,1,0,1,8,10,4,3,104,20,1,20,1,9,6,0,20,0,20,40,40,20,20,0,0,20,0,0,0,20,1,0,0,0,0,0,1,0,0,0,0,20,0,0,0,0,0.5,0.5
pun_noise,1,1,1,0,1,9,6,4,1,104,20,1,20,1,10,9,20,20,20,20,60,60,30,30,0,0,30,0,0,0,30,1,0,0,0,0,0,1,0,0,0,0,20,0,0,0,0,0.5,0.5
pun_noise,1,1,1,0,1,9,9,4,2,104,20,1,20,1,10,6,20,20,20,20,60,60,30,30,0,0,30,0,0,0,30,1,0,5,5,0,0,0,0,0,0,0,0,0,0,0,0,1,0
pun_noise,1,1,1,0,1,9,10,4,3,104,20,1,20,1,9,6,20,20,20,20,60,60,30,30,0,0,30,0,0,0,30,1,0,0,0,0,0,1,0,0,0,0,20,0,0,0,0,0.5,0.5
pun_noise,1,1,1,0,1,10,6,4,1,104,20,1,20,1,9,10,20,20,20,0,60,40,30,20,0,0,30,0,5,5,25,1,0,0,0,0,0,1,0,0,0,0,20,0,0,0,0,1,1
pun_noise,1,1,1,0,1,10,9,4,2,104,20,1,20,1,6,10,20,20,20,0,60,40,30,20,0,0,30,0,3,3,27,1,0,0,0,0,0,1,0,0,0,0,20,0,0,0,0,1,1
pun_noise,1,1,1,0,1,10,10,4,3,104,20,1,0,0,9,6,20,20,20,20,60,40,30,20,8,24,6,0,0,0,6,1,0,0,0,0,0,1,0,0,0,0,20,0,0,0,0,1,1
pun_noise,1,1,1,0,1,11,6,4,1,104,20,1,20,1,9,10,0,20,0,20,40,40,20,20,0,0,20,0,0,0,20,1,0,0,0,0,0,1,0,0,0,0,20,0,0,0,0,0.5,0.5
pun_noise,1,1,1,0,1,11,9,4,2,104,0,0,0,0,6,10,20,20,20,20,40,40,40,40,0,0,40,0,0,0,40,1,0,0,0,0,0,1,0,0,0,0,20,0,0,0,0,0.5,0.5
pun_noise,1,1,1,0,1,11,10,4,3,104,20,1,20,1,9,6,0,20,0,20,40,40,20,20,0,0,20,0,0,0,20,1,0,8,8,0,0,1,8,8,0,0,0,1,1,8,0,1,1
pun_noise,1,1,1,0,1,12,6,4,1,104,20,1,20,1,9,10,0,20,0,20,40,40,20,20,0,0,20,0,0,0,20,1,0,0,0,0,0,1,0,0,0,0,20,0,0,0,0,0.5,0.5
pun_noise,1,1,1,0,1,12,9,4,2,104,0,0,0,0,10,6,20,20,20,20,40,40,40,40,3,9,31,0,0,0,31,1,0,0,0,0,0,0,0,0,0,0,0,0,0,0,0,1,0
pun_noise,1,1,1,0,1,12,10,4,3,104,20,1,20,1,9,6,0,20,0,20,40,40,20,20,0,0,20,3,0,3,17,1,0,0,0,0,0,1,0,0,0,0,20,0,0,0,0,0.5,0.5
pun_noise,1,1,1,0,1,13,6,4,1,104,20,1,0,0,9,10,0,0,0,0,20,0,10,0,3,9,1,0,0,0,1,1,0,0,0,0,0,1,0,0,0,0,20,0,0,0,0,0.5,0.5
pun_noise,1,1,1,0,1,13,9,4,2,104,0,0,0,0,10,6,0,20,0,0,20,0,30,20,0,0,30,3,3,6,24,1,0,3,3,0,0,0,0,0,0,0,0,0,0,0,0,1,0
pun_noise,1,1,1,0,1,13,10,4,3,104,0,0,0,0,9,6,0,20,0,0,20,0,30,20,3,9,21,0,0,0,21,1,0,0,0,0,0,1,0,0,0,0,20,0,0,0,0,0.5,0.5
pun_noise,1,1,1,0,1,14,6,4,1,104,20,1,20,1,9,10,20,20,20,20,60,60,30,30,0,0,30,0,0,0,30,1,0,3,3,0,0,1,3,3,0,0,0,1,1,3,0,0,0
pun_noise,1,1,1,0,1,14,9,4,2,104,20,1,20,1,10,6,20,20,20,20,60,60,30,30,0,0,30,0,0,0,30,1,0,0,0,0,0,0,0,0,0,0,0,0,0,0,0,0,0
pun_noise,1,1,1,0,1,14,10,4,3,104,20,1,20,1,9,6,20,20,20,20,60,60,30,30,0,0,30,0,0,0,30,1,0,3,3,0,0,0,0,0,0,0,0,0,0,0,0,0,0
pun_noise,1,1,1,0,1,15,6,4,1,104,20,1,20,1,10,9,20,0,20,0,40,40,20,20,0,0,20,0,0,0,20,1,0,0,0,0,0,1,0,0,0,0,20,0,0,0,0,1,1
pun_noise,1,1,1,0,1,15,9,4,2,104,0,0,0,0,6,10,20,20,20,20,40,40,40,40,3,9,31,0,0,0,31,1,0,0,0,0,0,1,0,0,0,0,20,0,0,0,0,1,1
pun_noise,1,1,1,0,1,15,10,4,3,104,20,1,20,1,9,6,0,20,0,20,40,40,20,20,0,0,20,3,0,3,17,1,0,0,0,0,0,1,0,0,0,0,20,0,0,0,0,1,1
pun_noise,1,1,1,0,1,16,6,4,1,104,20,1,0,0,9,10,0,20,0,20,40,20,20,10,6,18,2,0,0,0,2,1,0,0,0,0,0,1,0,0,0,0,20,0,0,0,0,0.5,0.5
pun_noise,1,1,1,0,1,16,9,4,2,104,0,0,0,0,6,10,20,20,0,20,40,20,40,30,3,9,31,3,0,3,28,1,0,3,3,0,0,0,0,0,0,0,0,0,0,0,0,1,0
pun_noise,1,1,1,0,1,16,10,4,3,104,20,1,20,1,6,9,20,0,0,0,40,20,20,10,0,0,20,3,3,6,14,1,0,0,0,0,0,1,0,0,0,0,20,0,0,0,0,0.5,0.5
pun_noise,1,1,1,0,1,17,6,4,1,104,20,1,20,1,10,9,20,0,20,0,40,40,20,20,0,0,20,0,5,5,15,1,0,6,6,0,0,1,6,6,0,0,0,1,1,6,0,0.5,0.5
pun_noise,1,1,1,0,1,17,9,4,2,104,0,0,0,0,10,6,20,20,20,20,40,40,40,40,10,30,10,0,0,0,10,1,0,3,3,0,0,0,0,0,0,0,0,0,0,0,0,0.5,0
pun_noise,1,1,1,0,1,17,10,4,3,104,20,1,20,1,9,6,0,20,0,20,40,40,20,20,0,0,20,5,0,5,15,1,0,0,0,0,0,1,0,0,0,0,20,0,0,0,0,0,0
pun_noise,1,1,1,0,1,18,6,4,1,104,20,1,20,1,10,9,20,20,20,20,60,60,30,30,0,0,30,0,0,0,30,1,0,0,0,0,0,1,0,0,0,0,20,0,0,0,0,0.5,0.5
pun_noise,1,1,1,0,1,18,9,4,2,104,20,1,20,1,10,6,20,20,20,20,60,60,30,30,0,0,30,0,0,0,30,1,0,10,10,0,0,0,0,0,0,0,0,0,0,0,0,1,0
pun_noise,1,1,1,0,1,18,10,4,3,104,20,1,20,1,6,9,20,20,20,20,60,60,30,30,0,0,30,0,0,0,30,1,0,0,0,0,0,1,0,0,0,0,20,0,0,0,0,0.5,0.5
pun_noise,1,1,1,0,1,19,6,4,1,104,20,1,0,0,10,9,20,20,20,20,60,40,30,20,6,18,12,0,0,0,12,1,0,0,0,0,0,1,0,0,0,0,20,0,0,0,0,1,1
pun_noise,1,1,1,0,1,19,9,4,2,104,20,1,20,1,6,10,20,20,0,20,60,40,30,20,0,0,30,4,0,4,26,1,0,0,0,0,0,1,0,0,0,0,20,0,0,0,0,1,1
pun_noise,1,1,1,0,1,19,10,4,3,104,20,1,20,1,9,6,20,20,20,0,60,40,30,20,0,0,30,0,2,2,28,1,0,0,0,0,0,1,0,0,0,0,20,0,0,0,0,1,1
pun_noise,1,1,1,0,1,20,6,4,1,104,20,1,0,0,10,9,20,20,20,20,60,40,30,20,0,0,30,0,0,0,30,1,0,6,6,0,0,1,6,6,0,0,0,1,1,6,0,1,1
pun_noise,1,1,1,0,1,20,9,4,2,104,20,1,20,1,6,10,20,20,0,20,60,40,30,20,0,0,30,0,0,0,30,1,0,0,0,0,0,1,0,0,0,0,20,0,0,0,0,0.5,0.5
pun_noise,1,1,1,0,1,20,10,4,3,104,20,1,20,1,6,9,20,20,0,20,60,40,30,20,0,0,30,0,0,0,30,1,0,0,0,0,0,1,0,0,0,0,20,0,0,0,0,0.5,0.5
pun_noise,1,1,1,0,1,21,6,4,1,104,20,1,0,0,9,10,0,20,0,20,40,20,20,10,0,0,20,0,0,0,20,1,0,0,0,0,0,1,0,0,0,0,0,1,1,0,0,1,1
pun_noise,1,1,1,0,1,21,9,4,2,104,0,0,0,0,6,10,20,20,0,20,40,20,40,30,0,0,40,0,0,0,40,1,0,0,0,0,0,1,0,0,0,0,20,0,0,0,0,0.5,0.5
pun_noise,1,1,1,0,1,21,10,4,3,104,20,1,20,1,6,9,20,0,0,0,40,20,20,10,0,0,20,0,0,0,20,1,0,0,0,0,0,1,0,0,0,0,20,0,0,0,0,0.5,0.5
pun_noise,1,1,1,0,1,22,6,4,1,104,20,1,20,1,10,9,0,20,0,20,40,40,20,20,0,0,20,0,0,0,20,1,0,0,0,0,0,1,0,0,0,0,0,1,1,0,0,0.5,0.5
pun_noise,1,1,1,0,1,22,9,4,2,104,20,1,20,1,10,6,0,20,0,20,40,40,20,20,0,0,20,0,0,0,20,1,0,0,0,0,0,0,0,0,0,0,0,0,0,0,0,0.5,0
pun_noise,1,1,1,0,1,22,10,4,3,104,0,0,0,0,9,6,20,20,20,20,40,40,40,40,0,0,40,0,0,0,40,1,0,0,0,0,0,1,0,0,0,0,20,0,0,0,0,0,0
pun_noise,1,1,1,0,1,23,6,4,1,104,20,1,0,0,10,9,20,0,20,0,40,20,20,10,0,0,20,0,0,0,20,1,0,0,0,0,0,1,0,0,0,0,20,0,0,0,0,0.5,0.5
pun_noise,1,1,1,0,1,23,9,4,2,104,0,0,0,0,10,6,20,20,20,0,40,20,40,30,0,0,40,0,0,0,40,1,0,0,0,0,0,1,0,0,0,0,20,0,0,0,0,0.5,0.5
pun_noise,1,1,1,0,1,23,10,4,3,104,20,1,20,1,6,9,20,0,0,0,40,20,20,10,0,0,20,0,0,0,20,1,0,0,0,0,0,0,0,0,0,0,0,0,0,0,0,1,0
pun_noise,1,1,1,0,1,24,6,4,1,104,20,1,20,1,9,10,0,0,0,0,20,20,10,10,0,0,10,0,0,0,10,1,0,0,0,0,0,1,0,0,0,0,0,1,1,0,0,0.5,0.5
pun_noise,1,1,1,0,1,24,9,4,2,104,0,0,0,0,6,10,20,0,20,0,20,20,30,30,0,0,30,0,0,0,30,1,0,0,0,0,0,0,0,0,0,0,0,0,0,0,0,0.5,0
pun_noise,1,1,1,0,1,24,10,4,3,104,0,0,0,0,9,6,0,20,0,20,20,20,30,30,0,0,30,0,0,0,30,1,0,0,0,0,0,1,0,0,0,0,20,0,0,0,0,0,0
pun_noise,1,1,1,0,1,25,6,4,1,104,20,1,20,1,10,9,20,20,0,20,60,40,30,20,0,0,30,0,0,0,30,1,0,0,0,0,0,1,0,0,0,0,20,0,0,0,0,0,0
pun_noise,1,1,1,0,1,25,9,4,2,104,20,1,20,1,6,10,20,20,20,0,60,40,30,20,0,0,30,0,0,0,30,1,0,0,0,0,0,0,0,0,0,0,0,0,0,0,0,0.5,0
pun_noise,1,1,1,0,1,25,10,4,3,104,20,1,0,0,6,9,20,20,20,20,60,40,30,20,0,0,30,0,0,0,30,1,0,0,0,0,0,0,0,0,0,0,0,0,0,0,0,0.5,0
pun_noise,1,1,1,0,1,26,6,4,1,104,20,1,20,1,9,10,0,20,0,0,40,20,20,10,0,0,20,0,0,0,20,1,0,0,0,0,0,1,0,0,0,0,20,0,0,0,0,0.5,0.5
pun_noise,1,1,1,0,1,26,9,4,2,104,0,0,0,0,10,6,20,20,0,20,40,20,40,30,0,0,40,0,0,0,40,1,0,0,0,0,0,1,0,0,0,0,20,0,0,0,0,0.5,0.5
pun_noise,1,1,1,0,1,26,10,4,3,104,20,1,0,0,9,6,0,20,0,20,40,20,20,10,0,0,20,0,0,0,20,1,0,0,0,0,0,1,0,0,0,0,0,1,1,0,0,1,1
pun_noise,1,1,1,0,1,27,6,4,1,104,0,0,0,0,10,9,20,20,20,20,40,40,40,40,0,0,40,0,0,0,40,1,0,0,0,0,0,1,0,0,0,0,20,0,0,0,0,0,0
pun_noise,1,1,1,0,1,27,9,4,2,104,20,1,20,1,10,6,20,0,20,0,40,40,20,20,0,0,20,0,0,0,20,1,0,0,0,0,0,0,0,0,0,0,0,0,0,0,0,0.5,0
pun_noise,1,1,1,0,1,27,10,4,3,104,20,1,20,1,6,9,0,20,0,20,40,40,20,20,0,0,20,0,0,0,20,1,0,0,0,0,0,1,0,0,0,0,0,1,1,0,0,0.5,0.5
pun_noise,1,1,1,0,1,28,6,4,1,104,0,0,0,0,9,10,0,20,0,20,20,20,30,30,0,0,30,0,0,0,30,1,0,0,0,0,0,0,0,0,0,0,0,0,0,0,0,1,0
pun_noise,1,1,1,0,1,28,9,4,2,104,0,0,0,0,10,6,20,0,20,0,20,20,30,30,0,0,30,0,0,0,30,1,0,0,0,0,0,1,0,0,0,0,20,0,0,0,0,0.5,0.5
pun_noise,1,1,1,0,1,28,10,4,3,104,20,1,20,1,6,9,0,0,0,0,20,20,10,10,0,0,10,0,0,0,10,1,0,0,0,0,0,1,0,0,0,0,20,0,0,0,0,0.5,0.5
pun_noise,1,1,1,0,1,29,6,4,1,104,0,0,0,0,9,10,0,20,0,20,20,20,30,30,2,6,24,0,0,0,24,1,0,0,0,0,0,0,0,0,0,0,0,0,0,0,0,0.5,0
pun_noise,1,1,1,0,1,29,9,4,2,104,0,0,0,0,6,10,0,20,0,20,20,20,30,30,2,6,24,0,0,0,24,1,0,0,0,0,0,0,0,0,0,0,0,0,0,0,0,0.5,0
pun_noise,1,1,1,0,1,29,10,4,3,104,20,1,20,1,6,9,0,0,0,0,20,20,10,10,0,0,10,2,2,4,6,1,0,0,0,0,0,1,0,0,0,0,20,0,0,0,0,0,0
pun_noise,1,1,1,0,1,30,6,4,1,104,0,0,0,0,10,9,0,20,0,20,20,20,30,30,0,0,30,0,0,0,30,1,0,2,2,0,0,0,0,0,0,0,0,0,0,0,0,0.5,0
pun_noise,1,1,1,0,1,30,9,4,2,104,20,1,20,1,6,10,0,0,0,0,20,20,10,10,0,0,10,0,0,0,10,1,0,2,2,0,0,0,0,0,0,0,0,0,0,0,0,0.5,0
pun_noise,1,1,1,0,1,30,10,4,3,104,0,0,0,0,9,6,20,0,20,0,20,20,30,30,0,0,30,0,0,0,30,1,0,0,0,0,0,1,0,0,0,0,20,0,0,0,0,0,0
pun_noise,1,1,1,0,1,31,6,4,1,104,0,0,0,0,9,10,0,0,0,0,0,0,20,20,0,0,20,0,0,0,20,1,0,0,0,0,0,0,0,0,0,0,0,0,0,0,0,0.5,0
pun_noise,1,1,1,0,1,31,9,4,2,104,0,0,0,0,10,6,0,0,0,0,0,0,20,20,0,0,20,0,0,0,20,1,0,0,0,0,0,1,0,0,0,0,20,0,0,0,0,0,0
pun_noise,1,1,1,0,1,31,10,4,3,104,0,0,0,0,6,9,0,0,0,0,0,0,20,20,0,0,20,0,0,0,20,1,0,0,0,0,0,0,0,0,0,0,0,0,0,0,0,0.5,0
pun_noise,1,1,1,0,1,32,6,4,1,104,0,0,0,0,9,10,0,20,0,20,20,20,30,30,3,9,21,0,0,0,21,1,0,0,0,0,0,0,0,0,0,0,0,0,0,0,0,0,0
pun_noise,1,1,1,0,1,32,9,4,2,104,0,0,0,0,6,10,0,20,0,20,20,20,30,30,3,9,21,0,0,0,21,1,0,0,0,0,0,0,0,0,0,0,0,0,0,0,0,0,0
pun_noise,1,1,1,0,1,32,10,4,3,104,20,1,20,1,9,6,0,0,0,0,20,20,10,10,0,0,10,3,3,6,4,1,0,0,0,0,0,0,0,0,0,0,0,0,0,0,0,0,0
pun_noise,1,1,1,0,1,33,6,4,1,104,20,1,20,1,10,9,20,0,20,0,40,40,20,20,0,0,20,0,1,1,19,1,0,3,3,0,0,0,0,0,0,0,0,0,0,0,0,0.5,0
pun_noise,1,1,1,0,1,33,9,4,2,104,0,0,0,0,10,6,20,20,20,20,40,40,40,40,6,18,22,0,0,0,22,1,0,3,3,0,0,0,0,0,0,0,0,0,0,0,0,0.5,0
pun_noise,1,1,1,0,1,33,10,4,3,104,20,1,20,1,6,9,20,0,20,0,40,40,20,20,0,0,20,0,5,5,15,1,0,0,0,0,0,1,0,0,0,0,20,0,0,0,0,0,0
pun_noise,1,1,1,0,1,34,6,4,1,104,20,1,20,1,9,10,20,20,20,20,60,60,30,30,0,0,30,0,0,0,30,1,0,0,0,0,0,1,0,0,0,0,20,0,0,0,0,0.5,0.5
pun_noise,1,1,1,0,1,34,9,4,2,104,20,1,20,1,10,6,20,20,20,20,60,60,30,30,0,0,30,0,0,0,30,1,0,6,6,0,0,0,0,0,0,0,0,0,0,0,0,1,0
pun_noise,1,1,1,0,1,34,10,4,3,104,20,1,20,1,6,9,20,20,20,20,60,60,30,30,0,0,30,0,0,0,30,1,0,0,0,0,0,1,0,0,0,0,20,0,0,0,0,0.5,0.5
pun_noise,1,1,1,0,1,35,6,4,1,104,20,1,20,1,10,9,20,0,0,0,40,20,20,10,0,0,20,1,1,2,18,1,0,0,0,0,0,1,0,0,0,0,20,0,0,0,0,1,1
pun_noise,1,1,1,0,1,35,9,4,2,104,0,0,0,0,6,10,20,20,20,0,40,20,40,30,4,12,28,0,0,0,28,1,0,0,0,0,0,1,0,0,0,0,20,0,0,0,0,1,1
pun_noise,1,1,1,0,1,35,10,4,3,104,20,1,0,0,9,6,0,20,0,20,40,20,20,10,1,3,17,3,0,3,14,1,0,0,0,0,0,1,0,0,0,0,20,0,0,0,0,1,1
pun_noise,1,1,1,0,1,36,6,4,1,104,0,0,0,0,10,9,20,20,20,20,40,40,40,40,4,12,28,0,0,0,28,1,0,0,0,0,0,1,0,0,0,0,20,0,0,0,0,0,0
pun_noise,1,1,1,0,1,36,9,4,2,104,20,1,20,1,10,6,20,0,20,0,40,40,20,20,0,0,20,0,0,0,20,1,0,4,4,0,0,0,0,0,0,0,0,0,0,0,0,0.5,0
pun_noise,1,1,1,0,1,36,10,4,3,104,20,1,20,1,9,6,20,0,20,0,40,40,20,20,0,0,20,0,4,4,16,1,0,1,1,0,0,1,1,1,0,0,0,1,1,1,0,0.5,0.5
pun_noise,1,1,1,0,1,37,6,4,1,104,20,1,20,1,10,9,20,0,20,0,40,40,20,20,0,0,20,0,0,0,20,1,0,4,4,0,0,0,0,0,0,0,0,0,0,0,0,1,0
pun_noise,1,1,1,0,1,37,9,4,2,104,0,0,0,0,6,10,20,20,20,20,40,40,40,40,0,0,40,0,0,0,40,1,0,0,0,0,0,1,0,0,0,0,20,0,0,0,0,0.5,0.5
pun_noise,1,1,1,0,1,37,10,4,3,104,20,1,20,1,9,6,0,20,0,20,40,40,20,20,0,0,20,0,0,0,20,1,0,0,0,0,0,1,0,0,0,0,20,0,0,0,0,0.5,0.5
pun_noise,1,1,1,0,1,38,6,4,1,104,20,1,20,1,9,10,20,20,20,20,60,60,30,30,0,0,30,0,0,0,30,1,0,0,0,0,0,1,0,0,0,0,20,0,0,0,0,0.5,0.5
pun_noise,1,1,1,0,1,38,9,4,2,104,20,1,20,1,10,6,20,20,20,20,60,60,30,30,0,0,30,0,0,0,30,1,0,0,0,0,0,0,0,0,0,0,0,0,0,0,0,1,0
pun_noise,1,1,1,0,1,38,10,4,3,104,20,1,20,1,6,9,20,20,20,20,60,60,30,30,0,0,30,0,0,0,30,1,0,0,0,0,0,1,0,0,0,0,20,0,0,0,0,0.5,0.5
pun_noise,1,1,1,0,1,39,6,4,1,104,20,1,20,1,10,9,20,0,20,0,40,40,20,20,0,0,20,0,0,0,20,1,0,0,0,0,0,1,0,0,0,0,20,0,0,0,0,1,1
pun_noise,1,1,1,0,1,39,9,4,2,104,0,0,0,0,6,10,20,20,20,20,40,40,40,40,0,0,40,0,0,0,40,1,0,0,0,0,0,1,0,0,0,0,20,0,0,0,0,1,1
pun_noise,1,1,1,0,1,39,10,4,3,104,20,1,20,1,6,9,20,0,20,0,40,40,20,20,0,0,20,0,0,0,20,1,0,0,0,0,0,1,0,0,0,0,20,0,0,0,0,1,1
pun_noise,1,1,1,0,1,40,6,4,1,104,20,1,20,1,10,9,20,20,20,20,60,60,30,30,0,0,30,0,0,0,30,1,0,0,0,0,0,1,0,0,0,0,20,0,0,0,0,0.5,0.5
pun_noise,1,1,1,0,1,40,9,4,2,104,20,1,20,1,10,6,20,20,20,20,60,60,30,30,0,0,30,0,0,0,30,1,0,0,0,0,0,0,0,0,0,0,0,0,0,0,0,1,0
pun_noise,1,1,1,0,1,40,10,4,3,104,20,1,20,1,6,9,20,20,20,20,60,60,30,30,0,0,30,0,0,0,30,1,0,0,0,0,0,1,0,0,0,0,20,0,0,0,0,0.5,0.5
pun_noise,1,1,1,0,1,41,6,4,1,104,20,1,20,1,9,10,20,20,20,20,60,60,30,30,0,0,30,0,0,0,30,1,0,0,0,0,0,1,0,0,0,0,20,0,0,0,0,1,1
pun_noise,1,1,1,0,1,41,9,4,2,104,20,1,20,1,10,6,20,20,20,20,60,60,30,30,0,0,30,0,0,0,30,1,0,0,0,0,0,1,0,0,0,0,20,0,0,0,0,1,1
pun_noise,1,1,1,0,1,41,10,4,3,104,20,1,20,1,9,6,20,20,20,20,60,60,30,30,0,0,30,0,0,0,30,1,0,0,0,0,0,1,0,0,0,0,20,0,0,0,0,1,1
pun_noise,1,1,1,0,1,42,6,4,1,104,20,1,20,1,10,9,20,0,20,0,40,40,20,20,0,0,20,0,0,0,20,1,0,0,0,0,0,1,0,0,0,0,20,0,0,0,0,1,1
pun_noise,1,1,1,0,1,42,9,4,2,104,0,0,0,0,6,10,20,20,20,20,40,40,40,40,0,0,40,0,0,0,40,1,0,0,0,0,0,1,0,0,0,0,20,0,0,0,0,1,1
pun_noise,1,1,1,0,1,42,10,4,3,104,20,1,20,1,9,6,0,20,0,20,40,40,20,20,0,0,20,0,0,0,20,1,0,0,0,0,0,1,0,0,0,0,20,0,0,0,0,1,1
pun_noise,1,1,1,0,1,43,6,4,1,104,20,1,20,1,9,10,20,20,20,20,60,60,30,30,0,0,30,0,0,0,30,1,0,0,0,0,0,1,0,0,0,0,20,0,0,0,0,0.5,0.5
pun_noise,1,1,1,0,1,43,9,4,2,104,20,1,20,1,10,6,20,20,20,20,60,60,30,30,0,0,30,0,0,0,30,1,0,0,0,0,0,0,0,0,0,0,0,0,0,0,0,1,0
pun_noise,1,1,1,0,1,43,10,4,3,104,20,1,20,1,9,6,20,20,20,20,60,60,30,30,0,0,30,0,0,0,30,1,0,0,0,0,0,1,0,0,0,0,20,0,0,0,0,0.5,0.5
pun_noise,1,1,1,0,1,44,6,4,1,104,20,1,20,1,10,9,20,20,20,20,60,60,30,30,0,0,30,0,0,0,30,1,0,0,0,0,0,1,0,0,0,0,20,0,0,0,0,1,1
pun_noise,1,1,1,0,1,44,9,4,2,104,20,1,20,1,10,6,20,20,20,20,60,60,30,30,0,0,30,0,0,0,30,1,0,0,0,0,0,1,0,0,0,0,20,0,0,0,0,1,1
pun_noise,1,1,1,0,1,44,10,4,3,104,20,1,20,1,9,6,20,20,20,20,60,60,30,30,0,0,30,0,0,0,30,1,0,0,0,0,0,1,0,0,0,0,20,0,0,0,0,1,1
pun_noise,1,1,1,0,1,45,6,4,1,104,20,1,20,1,10,9,20,0,20,0,40,40,20,20,0,0,20,0,0,0,20,1,0,0,0,0,0,1,0,0,0,0,20,0,0,0,0,1,1
pun_noise,1,1,1,0,1,45,9,4,2,104,0,0,0,0,6,10,20,20,20,20,40,40,40,40,0,0,40,0,0,0,40,1,0,0,0,0,0,1,0,0,0,0,20,0,0,0,0,1,1
pun_noise,1,1,1,0,1,45,10,4,3,104,20,1,20,1,6,9,20,0,20,0,40,40,20,20,0,0,20,0,0,0,20,1,0,0,0,0,0,1,0,0,0,0,20,0,0,0,0,1,1
pun_noise,1,1,1,0,1,46,6,4,1,104,20,1,20,1,9,10,20,20,0,0,60,20,30,10,0,0,30,1,1,2,28,1,0,0,0,0,0,1,0,0,0,0,20,0,0,0,0,0.5,0.5
pun_noise,1,1,1,0,1,46,9,4,2,104,20,1,0,0,10,6,20,20,0,20,60,20,30,10,1,3,27,0,0,0,27,1,0,0,0,0,0,0,0,0,0,0,0,0,0,0,0,1,0
pun_noise,1,1,1,0,1,46,10,4,3,104,20,1,0,0,6,9,20,20,20,0,60,20,30,10,1,3,27,0,0,0,27,1,0,0,0,0,0,1,0,0,0,0,20,0,0,0,0,0.5,0.5
pun_noise,1,1,1,0,1,47,6,4,1,104,0,0,0,0,10,9,20,0,20,0,20,20,30,30,0,0,30,0,0,0,30,1,0,0,0,0,0,1,0,0,0,0,20,0,0,0,0,0,0
pun_noise,1,1,1,0,1,47,9,4,2,104,0,0,0,0,6,10,0,20,0,20,20,20,30,30,0,0,30,0,0,0,30,1,0,1,1,0,0,1,1,1,0,0,0,1,1,1,0,0.5,0.5
pun_noise,1,1,1,0,1,47,10,4,3,104,20,1,20,1,6,9,0,0,0,0,20,20,10,10,0,0,10,0,0,0,10,1,0,1,1,0,0,1,1,1,0,0,0,1,1,1,0,0.5,0.5
pun_noise,1,1,1,0,1,48,6,4,1,104,0,0,0,0,10,9,20,20,20,20,40,40,40,40,0,0,40,0,0,0,40,1,0,0,0,0,0,0,0,0,0,0,0,0,0,0,0,0.5,0
pun_noise,1,1,1,0,1,48,9,4,2,104,20,1,20,1,10,6,20,0,20,0,40,40,20,20,0,0,20,0,0,0,20,1,0,0,0,0,0,0,0,0,0,0,0,0,0,0,0,0.5,0
pun_noise,1,1,1,0,1,48,10,4,3,104,20,1,20,1,6,9,0,20,0,20,40,40,20,20,0,0,20,0,0,0,20,1,0,0,0,0,0,1,0,0,0,0,20,0,0,0,0,0,0
pun_noise,1,1,1,0,1,49,6,4,1,104,0,0,0,0,9,10,20,20,20,20,40,40,40,40,5,15,25,0,0,0,25,1,0,0,0,0,0,0,0,0,0,0,0,0,0,0,0,1,0
pun_noise,1,1,1,0,1,49,9,4,2,104,20,1,20,1,6,10,0,20,0,20,40,40,20,20,0,0,20,0,0,0,20,1,0,0,0,0,0,1,0,0,0,0,20,0,0,0,0,0.5,0.5
pun_noise,1,1,1,0,1,49,10,4,3,104,20,1,20,1,6,9,0,20,0,20,40,40,20,20,0,0,20,5,0,5,15,1,0,0,0,0,0,1,0,0,0,0,20,0,0,0,0,0.5,0.5
pun_noise,1,1,1,0,1,50,6,4,1,104,0,0,0,0,9,10,20,20,20,20,40,40,40,40,5,15,25,0,0,0,25,1,0,5,5,0,0,0,0,0,0,0,0,0,0,0,0,1,0
pun_noise,1,1,1,0,1,50,9,4,2,104,20,1,20,1,6,10,0,20,0,20,40,40,20,20,0,0,20,0,0,0,20,1,0,0,0,0,0,1,0,0,0,0,20,0,0,0,0,0.5,0.5
pun_noise,1,1,1,0,1,50,10,4,3,104,20,1,20,1,6,9,0,20,0,20,40,40,20,20,0,0,20,5,0,5,15,1,0,0,0,0,0,1,0,0,0,0,20,0,0,0,0,0.5,0.5
pun_noise,1,1,1,0,1,1,2,5,1,105,0,0,0,0,19,25,0,20,0,0,20,0,30,20,0,0,30,0,0,0,30,1,0,,,,,,,,,,,,,,,,
pun_noise,1,1,1,0,1,1,19,5,2,105,0,0,0,0,2,25,0,20,0,0,20,0,30,20,0,0,30,0,0,0,30,1,0,,,,,,,,,,,,,,,,
pun_noise,1,1,1,0,1,1,25,5,3,105,20,1,0,0,2,19,0,0,0,0,20,0,10,0,0,0,10,0,0,0,10,1,0,,,,,,,,,,,,,,,,
pun_noise,1,1,1,0,1,2,2,5,1,105,0,0,0,0,25,19,20,0,20,0,20,20,30,30,1,3,27,0,0,0,27,1,0,0,0,0,0,0,0,0,0,0,0,0,0,0,0,0,0
pun_noise,1,1,1,0,1,2,19,5,2,105,0,0,0,0,25,2,20,0,20,0,20,20,30,30,1,3,27,0,0,0,27,1,0,0,0,0,0,0,0,0,0,0,0,0,0,0,0,0,0
pun_noise,1,1,1,0,1,2,25,5,3,105,20,1,20,1,2,19,0,0,0,0,20,20,10,10,0,0,10,1,1,2,8,1,0,0,0,0,0,1,0,0,0,0,0,1,1,0,0,0,0
pun_noise,1,1,1,0,1,3,2,5,1,105,0,0,0,0,25,19,20,0,20,0,20,20,30,30,3,9,21,0,0,0,21,1,0,1,1,0,0,0,0,0,0,0,0,0,0,0,0,0.5,0
pun_noise,1,1,1,0,1,3,19,5,2,105,0,0,0,0,25,2,20,0,20,0,20,20,30,30,3,9,21,0,0,0,21,1,0,1,1,0,0,0,0,0,0,0,0,0,0,0,0,0.5,0
pun_noise,1,1,1,0,1,3,25,5,3,105,20,1,20,1,19,2,0,0,0,0,20,20,10,10,0,0,10,3,3,6,4,1,0,0,0,0,0,1,0,0,0,0,20,0,0,0,0,0,0
pun_noise,1,1,1,0,1,4,2,5,1,105,0,0,0,0,19,25,0,0,0,0,0,0,20,20,0,0,20,0,0,0,20,1,0,3,3,0,0,0,0,0,0,0,0,0,0,0,0,0.5,0
pun_noise,1,1,1,0,1,4,19,5,2,105,0,0,0,0,25,2,0,0,0,0,0,0,20,20,0,0,20,0,0,0,20,1,0,3,3,0,0,0,0,0,0,0,0,0,0,0,0,0.5,0
pun_noise,1,1,1,0,1,4,25,5,3,105,0,0,0,0,2,19,0,0,0,0,0,0,20,20,0,0,20,0,0,0,20,1,0,0,0,0,0,1,0,0,0,0,20,0,0,0,0,0,0
pun_noise,1,1,1,0,1,5,2,5,1,105,0,0,0,0,25,19,0,0,0,0,0,0,20,20,0,0,20,0,0,0,20,1,0,0,0,0,0,0,0,0,0,0,0,0,0,0,0,0,0
pun_noise,1,1,1,0,1,5,19,5,2,105,0,0,0,0,25,2,0,0,0,0,0,0,20,20,0,0,20,0,0,0,20,1,0,0,0,0,0,0,0,0,0,0,0,0,0,0,0,0,0
pun_noise,1,1,1,0,1,5,25,5,3,105,0,0,0,0,2,19,0,0,0,0,0,0,20,20,0,0,20,0,0,0,20,1,0,0,0,0,0,0,0,0,0,0,0,0,0,0,0,0,0
pun_noise,1,1,1,0,1,6,2,5,1,105,0,0,0,0,25,19,0,0,0,0,0,0,20,20,2,6,14,0,0,0,14,1,0,0,0,0,0,0,0,0,0,0,0,0,0,0,0,0,0
pun_noise,1,1,1,0,1,6,19,5,2,105,0,0,0,0,25,2,0,0,0,0,0,0,20,20,2,6,14,0,0,0,14,1,0,0,0,0,0,0,0,0,0,0,0,0,0,0,0,0,0
pun_noise,1,1,1,0,1,6,25,5,3,105,0,0,0,0,2,19,0,0,0,0,0,0,20,20,0,0,20,2,2,4,16,1,0,0,0,0,0,0,0,0,0,0,0,0,0,0,0,0,0
pun_noise,1,1,1,0,1,7,2,5,1,105,0,0,0,0,25,19,0,0,0,0,0,0,20,20,1,3,17,1,1,2,15,1,0,2,2,0,0,0,0,0,0,0,0,0,0,0,0,0,0
pun_noise,1,1,1,0,1,7,19,5,2,105,0,0,0,0,25,2,0,0,0,0,0,0,20,20,1,3,17,1,1,2,15,1,0,2,2,0,0,0,0,0,0,0,0,0,0,0,0,0,0
pun_noise,1,1,1,0,1,7,25,5,3,105,0,0,0,0,19,2,0,0,0,0,0,0,20,20,2,6,14,0,0,0,14,1,0,0,0,0,0,0,0,0,0,0,0,0,0,0,0,0,0
pun_noise,1,1,1,0,1,8,2,5,1,105,0,0,0,0,25,19,0,0,0,0,0,0,20,20,1,3,17,0,0,0,17,1,0,1,1,0,0,0,0,0,0,0,0,0,0,0,0,0,0
pun_noise,1,1,1,0,1,8,19,5,2,105,0,0,0,0,25,2,0,0,0,0,0,0,20,20,0,0,20,1,1,2,18,1,0,1,1,0,0,0,0,0,0,0,0,0,0,0,0,0,0
pun_noise,1,1,1,0,1,8,25,5,3,105,0,0,0,0,19,2,0,0,0,0,0,0,20,20,1,3,17,0,0,0,17,1,0,2,2,0,0,0,0,0,0,0,0,0,0,0,0,0,0
pun_noise,1,1,1,0,1,9,2,5,1,105,0,0,0,0,25,19,0,0,0,0,0,0,20,20,2,6,14,0,0,0,14,1,0,1,1,0,0,0,0,0,0,0,0,0,0,0,0,0,0
pun_noise,1,1,1,0,1,9,19,5,2,105,0,0,0,0,2,25,0,0,0,0,0,0,20,20,0,0,20,2,0,2,18,1,0,0,0,0,0,0,0,0,0,0,0,0,0,0,0,0,0
pun_noise,1,1,1,0,1,9,25,5,3,105,0,0,0,0,2,19,0,0,0,0,0,0,20,20,0,0,20,0,0,0,20,1,0,1,1,0,0,0,0,0,0,0,0,0,0,0,0,0,0
pun_noise,1,1,1,0,1,10,2,5,1,105,0,0,0,0,19,25,0,0,0,0,0,0,20,20,0,0,20,1,1,2,18,1,0,2,2,0,0,0,0,0,0,0,0,0,0,0,0,0,0
pun_noise,1,1,1,0,1,10,19,5,2,105,0,0,0,0,25,2,0,0,0,0,0,0,20,20,1,3,17,2,0,2,15,1,0,0,0,0,0,0,0,0,0,0,0,0,0,0,0,0,0
pun_noise,1,1,1,0,1,10,25,5,3,105,0,0,0,0,19,2,0,0,0,0,0,0,20,20,3,9,11,0,0,0,11,1,0,0,0,0,0,0,0,0,0,0,0,0,0,0,0,0,0
pun_noise,1,1,1,0,1,11,2,5,1,105,0,0,0,0,19,25,20,20,20,20,40,40,40,40,3,9,31,0,0,0,31,1,0,0,0,0,0,0,0,0,0,0,0,0,0,0,0,0,0
pun_noise,1,1,1,0,1,11,19,5,2,105,20,1,20,1,2,25,0,20,0,20,40,40,20,20,0,0,20,0,0,0,20,1,0,1,1,0,0,0,0,0,0,0,0,0,0,0,0,0,0
pun_noise,1,1,1,0,1,11,25,5,3,105,20,1,20,1,19,2,20,0,20,0,40,40,20,20,0,0,20,0,3,3,17,1,0,3,3,0,0,0,0,0,0,0,0,0,0,0,0,0,0
pun_noise,1,1,1,0,1,12,2,5,1,105,0,0,0,0,25,19,20,20,20,20,40,40,40,40,5,15,25,0,0,0,25,1,0,3,3,0,0,0,0,0,0,0,0,0,0,0,0,1,0
pun_noise,1,1,1,0,1,12,19,5,2,105,20,1,20,1,2,25,0,20,0,20,40,40,20,20,0,0,20,2,0,2,18,1,0,0,0,0,0,1,0,0,0,0,20,0,0,0,0,0.5,0.5
pun_noise,1,1,1,0,1,12,25,5,3,105,20,1,20,1,19,2,20,0,20,0,40,40,20,20,0,0,20,0,3,3,17,1,0,0,0,0,0,1,0,0,0,0,20,0,0,0,0,0.5,0.5
pun_noise,1,1,1,0,1,13,2,5,1,105,20,1,20,1,19,25,20,20,20,20,60,60,30,30,0,0,30,0,0,0,30,1,0,5,5,0,0,0,0,0,0,0,0,0,0,0,0,1,0
pun_noise,1,1,1,0,1,13,19,5,2,105,20,1,20,1,2,25,20,20,20,20,60,60,30,30,0,0,30,0,0,0,30,1,0,0,0,0,0,1,0,0,0,0,20,0,0,0,0,0.5,0.5
pun_noise,1,1,1,0,1,13,25,5,3,105,20,1,20,1,19,2,20,20,20,20,60,60,30,30,0,0,30,0,0,0,30,1,0,0,0,0,0,1,0,0,0,0,20,0,0,0,0,0.5,0.5
pun_noise,1,1,1,0,1,14,2,5,1,105,0,0,0,0,19,25,20,20,20,20,40,40,40,40,6,18,22,0,0,0,22,1,0,0,0,0,0,1,0,0,0,0,20,0,0,0,0,1,1
pun_noise,1,1,1,0,1,14,19,5,2,105,20,1,20,1,25,2,20,0,20,0,40,40,20,20,0,0,20,0,3,3,17,1,0,0,0,0,0,1,0,0,0,0,20,0,0,0,0,1,1
pun_noise,1,1,1,0,1,14,25,5,3,105,20,1,20,1,19,2,20,0,20,0,40,40,20,20,0,0,20,0,3,3,17,1,0,0,0,0,0,1,0,0,0,0,20,0,0,0,0,1,1
pun_noise,1,1,1,0,1,15,2,5,1,105,20,1,20,1,25,19,20,20,0,20,60,40,30,20,0,0,30,2,0,2,28,1,0,6,6,0,0,0,0,0,0,0,0,0,0,0,0,1,0
pun_noise,1,1,1,0,1,15,19,5,2,105,20,1,20,1,2,25,20,20,20,0,60,40,30,20,0,0,30,0,5,5,25,1,0,0,0,0,0,1,0,0,0,0,20,0,0,0,0,0.5,0.5
pun_noise,1,1,1,0,1,15,25,5,3,105,20,1,0,0,2,19,20,20,20,20,60,40,30,20,7,21,9,0,0,0,9,1,0,0,0,0,0,1,0,0,0,0,20,0,0,0,0,0.5,0.5
pun_noise,1,1,1,0,1,16,2,5,1,105,0,0,0,0,19,25,20,20,20,20,40,40,40,40,8,24,16,0,0,0,16,1,0,0,0,0,0,1,0,0,0,0,20,0,0,0,0,0.5,0.5
pun_noise,1,1,1,0,1,16,19,5,2,105,20,1,20,1,25,2,20,0,20,0,40,40,20,20,0,0,20,0,5,5,15,1,0,0,0,0,0,1,0,0,0,0,20,0,0,0,0,0.5,0.5
pun_noise,1,1,1,0,1,16,25,5,3,105,20,1,20,1,2,19,0,20,0,20,40,40,20,20,0,0,20,3,0,3,17,1,0,7,7,0,0,1,7,7,0,0,0,1,1,7,0,1,1
pun_noise,1,1,1,0,1,17,2,5,1,105,20,1,20,1,25,19,20,20,0,20,60,40,30,20,0,0,30,2,0,2,28,1,0,8,8,0,0,0,0,0,0,0,0,0,0,0,0,1,0
pun_noise,1,1,1,0,1,17,19,5,2,105,20,1,20,1,2,25,20,20,20,0,60,40,30,20,0,0,30,0,5,5,25,1,0,0,0,0,0,1,0,0,0,0,20,0,0,0,0,0.5,0.5
pun_noise,1,1,1,0,1,17,25,5,3,105,20,1,0,0,2,19,20,20,20,20,60,40,30,20,7,21,9,0,0,0,9,1,0,0,0,0,0,1,0,0,0,0,20,0,0,0,0,0.5,0.5
pun_noise,1,1,1,0,1,18,2,5,1,105,20,1,20,1,25,19,20,0,20,0,40,40,20,20,0,0,20,0,0,0,20,1,0,0,0,0,0,1,0,0,0,0,20,0,0,0,0,0.5,0.5
pun_noise,1,1,1,0,1,18,19,5,2,105,0,0,0,0,2,25,20,20,20,20,40,40,40,40,2,6,34,0,0,0,34,1,0,0,0,0,0,1,0,0,0,0,20,0,0,0,0,0.5,0.5
pun_noise,1,1,1,0,1,18,25,5,3,105,20,1,20,1,2,19,20,0,20,0,40,40,20,20,0,0,20,0,2,2,18,1,0,7,7,0,0,1,7,7,0,0,0,1,1,7,0,1,1
pun_noise,1,1,1,0,1,19,2,5,1,105,20,1,20,1,19,25,20,20,20,20,60,60,30,30,0,0,30,0,0,0,30,1,0,0,0,0,0,1,0,0,0,0,20,0,0,0,0,0.5,0.5
pun_noise,1,1,1,0,1,19,19,5,2,105,20,1,20,1,25,2,20,20,20,20,60,60,30,30,0,0,30,0,0,0,30,1,0,2,2,0,0,0,0,0,0,0,0,0,0,0,0,1,0
pun_noise,1,1,1,0,1,19,25,5,3,105,20,1,20,1,2,19,20,20,20,20,60,60,30,30,0,0,30,0,0,0,30,1,0,0,0,0,0,1,0,0,0,0,20,0,0,0,0,0.5,0.5
pun_noise,1,1,1,0,1,20,2,5,1,105,20,1,0,0,25,19,20,20,20,20,60,40,30,20,7,21,9,0,0,0,9,1,0,0,0,0,0,1,0,0,0,0,20,0,0,0,0,1,1
pun_noise,1,1,1,0,1,20,19,5,2,105,20,1,20,1,2,25,20,20,0,20,60,40,30,20,0,0,30,5,0,5,25,1,0,0,0,0,0,1,0,0,0,0,20,0,0,0,0,1,1
pun_noise,1,1,1,0,1,20,25,5,3,105,20,1,20,1,19,2,20,20,20,0,60,40,30,20,0,0,30,0,2,2,28,1,0,0,0,0,0,1,0,0,0,0,20,0,0,0,0,1,1
pun_noise,1,1,1,0,1,21,2,5,1,105,20,1,20,1,19,25,20,20,20,20,60,60,30,30,0,0,30,0,0,0,30,1,0,7,7,0,0,1,7,7,0,0,0,1,1,7,0,1,1
pun_noise,1,1,1,0,1,21,19,5,2,105,20,1,20,1,25,2,20,20,20,20,60,60,30,30,0,0,30,0,0,0,30,1,0,0,0,0,0,1,0,0,0,0,20,0,0,0,0,0.5,0.5
pun_noise,1,1,1,0,1,21,25,5,3,105,20,1,20,1,2,19,20,20,20,20,60,60,30,30,0,0,30,0,0,0,30,1,0,0,0,0,0,1,0,0,0,0,20,0,0,0,0,0.5,0.5
pun_noise,1,1,1,0,1,22,2,5,1,105,20,1,20,1,19,25,20,20,20,20,60,60,30,30,0,0,30,0,0,0,30,1,0,0,0,0,0,1,0,0,0,0,20,0,0,0,0,1,1
pun_noise,1,1,1,0,1,22,19,5,2,105,20,1,20,1,2,25,20,20,20,20,60,60,30,30,0,0,30,0,0,0,30,1,0,0,0,0,0,1,0,0,0,0,20,0,0,0,0,1,1
pun_noise,1,1,1,0,1,22,25,5,3,105,20,1,20,1,19,2,20,20,20,20,60,60,30,30,0,0,30,0,0,0,30,1,0,0,0,0,0,1,0,0,0,0,20,0,0,0,0,1,1
pun_noise,1,1,1,0,1,23,2,5,1,105,20,1,20,1,19,25,20,20,20,20,60,60,30,30,0,0,30,0,0,0,30,1,0,0,0,0,0,1,0,0,0,0,20,0,0,0,0,1,1
pun_noise,1,1,1,0,1,23,19,5,2,105,20,1,20,1,25,2,20,20,20,20,60,60,30,30,0,0,30,0,0,0,30,1,0,0,0,0,0,1,0,0,0,0,20,0,0,0,0,1,1
pun_noise,1,1,1,0,1,23,25,5,3,105,20,1,20,1,19,2,20,20,20,20,60,60,30,30,0,0,30,0,0,0,30,1,0,0,0,0,0,1,0,0,0,0,20,0,0,0,0,1,1
pun_noise,1,1,1,0,1,24,2,5,1,105,20,1,20,1,19,25,20,20,20,20,60,60,30,30,0,0,30,0,0,0,30,1,0,0,0,0,0,1,0,0,0,0,20,0,0,0,0,1,1
pun_noise,1,1,1,0,1,24,19,5,2,105,20,1,20,1,25,2,20,20,20,20,60,60,30,30,0,0,30,0,0,0,30,1,0,0,0,0,0,1,0,0,0,0,20,0,0,0,0,1,1
pun_noise,1,1,1,0,1,24,25,5,3,105,20,1,20,1,2,19,20,20,20,20,60,60,30,30,0,0,30,0,0,0,30,1,0,0,0,0,0,1,0,0,0,0,20,0,0,0,0,1,1
pun_noise,1,1,1,0,1,25,2,5,1,105,20,1,20,1,25,19,20,0,20,0,40,40,20,20,0,0,20,0,2,2,18,1,0,0,0,0,0,1,0,0,0,0,20,0,0,0,0,1,1
pun_noise,1,1,1,0,1,25,19,5,2,105,0,0,0,0,25,2,20,20,20,20,40,40,40,40,2,6,34,0,0,0,34,1,0,0,0,0,0,1,0,0,0,0,20,0,0,0,0,1,1
pun_noise,1,1,1,0,1,25,25,5,3,105,20,1,20,1,19,2,0,20,0,20,40,40,20,20,0,0,20,0,0,0,20,1,0,0,0,0,0,1,0,0,0,0,20,0,0,0,0,1,1
pun_noise,1,1,1,0,1,26,2,5,1,105,20,1,20,1,25,19,20,0,20,0,40,40,20,20,0,0,20,0,2,2,18,1,0,0,0,0,0,1,0,0,0,0,20,0,0,0,0,0.5,0.5
pun_noise,1,1,1,0,1,26,19,5,2,105,0,0,0,0,2,25,20,20,20,20,40,40,40,40,2,6,34,0,0,0,34,1,0,2,2,0,0,0,0,0,0,0,0,0,0,0,0,1,0
pun_noise,1,1,1,0,1,26,25,5,3,105,20,1,20,1,2,19,20,0,20,0,40,40,20,20,0,0,20,0,0,0,20,1,0,0,0,0,0,1,0,0,0,0,20,0,0,0,0,0.5,0.5
pun_noise,1,1,1,0,1,27,2,5,1,105,20,1,20,1,19,25,20,20,20,20,60,60,30,30,0,0,30,0,0,0,30,1,0,0,0,0,0,1,0,0,0,0,20,0,0,0,0,0.5,0.5
pun_noise,1,1,1,0,1,27,19,5,2,105,20,1,20,1,25,2,20,20,20,20,60,60,30,30,0,0,30,0,0,0,30,1,0,2,2,0,0,0,0,0,0,0,0,0,0,0,0,1,0
pun_noise,1,1,1,0,1,27,25,5,3,105,20,1,20,1,19,2,20,20,20,20,60,60,30,30,0,0,30,0,0,0,30,1,0,0,0,0,0,1,0,0,0,0,20,0,0,0,0,0.5,0.5
pun_noise,1,1,1,0,1,28,2,5,1,105,20,1,0,0,19,25,20,20,20,20,60,40,30,20,7,21,9,0,0,0,9,1,0,0,0,0,0,1,0,0,0,0,20,0,0,0,0,1,1
pun_noise,1,1,1,0,1,28,19,5,2,105,20,1,20,1,25,2,20,20,20,0,60,40,30,20,0,0,30,0,5,5,25,1,0,0,0,0,0,1,0,0,0,0,20,0,0,0,0,1,1
pun_noise,1,1,1,0,1,28,25,5,3,105,20,1,20,1,2,19,20,20,0,20,60,40,30,20,0,0,30,2,0,2,28,1,0,0,0,0,0,1,0,0,0,0,20,0,0,0,0,1,1
pun_noise,1,1,1,0,1,29,2,5,1,105,20,1,20,1,19,25,20,20,0,20,60,40,30,20,0,0,30,0,0,0,30,1,0,7,7,0,0,1,7,7,0,0,0,1,1,7,0,1,1
pun_noise,1,1,1,0,1,29,19,5,2,105,20,1,0,0,2,25,20,20,20,20,60,40,30,20,3,9,21,0,0,0,21,1,0,0,0,0,0,1,0,0,0,0,20,0,0,0,0,0.5,0.5
pun_noise,1,1,1,0,1,29,25,5,3,105,20,1,20,1,2,19,20,20,20,0,60,40,30,20,0,0,30,0,3,3,27,1,0,0,0,0,0,1,0,0,0,0,20,0,0,0,0,0.5,0.5
pun_noise,1,1,1,0,1,30,2,5,1,105,20,1,20,1,19,25,20,20,0,20,60,40,30,20,0,0,30,0,0,0,30,1,0,0,0,0,0,1,0,0,0,0,20,0,0,0,0,0.5,0.5
pun_noise,1,1,1,0,1,30,19,5,2,105,20,1,0,0,2,25,20,20,20,20,60,40,30,20,3,9,21,0,0,0,21,1,0,3,3,0,0,1,3,3,0,0,0,1,1,3,0,1,1
pun_noise,1,1,1,0,1,30,25,5,3,105,20,1,20,1,19,2,20,20,0,20,60,40,30,20,0,0,30,3,0,3,27,1,0,0,0,0,0,1,0,0,0,0,20,0,0,0,0,0.5,0.5
pun_noise,1,1,1,0,1,31,2,5,1,105,20,1,20,1,19,25,20,0,20,0,40,40,20,20,2,6,14,0,2,2,12,1,0,0,0,0,0,1,0,0,0,0,20,0,0,0,0,0.5,0.5
pun_noise,1,1,1,0,1,31,19,5,2,105,20,1,20,1,25,2,0,20,0,20,40,40,20,20,3,9,11,5,0,5,6,1,0,3,3,0,0,1,3,3,0,0,0,1,1,3,0,1,1
pun_noise,1,1,1,0,1,31,25,5,3,105,0,0,0,0,19,2,20,20,20,20,40,40,40,40,7,21,19,3,2,5,14,1,0,0,0,0,0,1,0,0,0,0,20,0,0,0,0,0.5,0.5
pun_noise,1,1,1,0,1,32,2,5,1,105,20,1,20,1,25,19,20,20,20,20,60,60,30,30,0,0,30,0,0,0,30,1,0,2,2,0,0,1,2,2,0,0,20,0,0,0,0,0.5,0.5
pun_noise,1,1,1,0,1,32,19,5,2,105,20,1,20,1,2,25,20,20,20,20,60,60,30,30,0,0,30,0,0,0,30,1,0,3,3,0,0,1,3,3,0,0,20,0,0,0,0,0.5,0.5
pun_noise,1,1,1,0,1,32,25,5,3,105,20,1,20,1,2,19,20,20,20,20,60,60,30,30,0,0,30,0,0,0,30,1,0,7,7,0,0,0,0,0,0,0,0,0,0,0,0,1,0
pun_noise,1,1,1,0,1,33,2,5,1,105,20,1,20,1,25,19,20,20,20,20,60,60,30,30,0,0,30,0,0,0,30,1,0,0,0,0,0,1,0,0,0,0,20,0,0,0,0,1,1
pun_noise,1,1,1,0,1,33,19,5,2,105,20,1,20,1,2,25,20,20,20,20,60,60,30,30,0,0,30,0,0,0,30,1,0,0,0,0,0,1,0,0,0,0,20,0,0,0,0,1,1
pun_noise,1,1,1,0,1,33,25,5,3,105,20,1,20,1,2,19,20,20,20,20,60,60,30,30,0,0,30,0,0,0,30,1,0,0,0,0,0,1,0,0,0,0,20,0,0,0,0,1,1
pun_noise,1,1,1,0,1,34,2,5,1,105,20,1,20,1,19,25,20,20,20,0,60,40,30,20,0,0,30,0,2,2,28,1,0,0,0,0,0,1,0,0,0,0,20,0,0,0,0,1,1
pun_noise,1,1,1,0,1,34,19,5,2,105,20,1,20,1,2,25,20,20,20,0,60,40,30,20,0,0,30,0,5,5,25,1,0,0,0,0,0,1,0,0,0,0,20,0,0,0,0,1,1
pun_noise,1,1,1,0,1,34,25,5,3,105,20,1,0,0,2,19,20,20,20,20,60,40,30,20,7,21,9,0,0,0,9,1,0,0,0,0,0,1,0,0,0,0,20,0,0,0,0,1,1
pun_noise,1,1,1,0,1,35,2,5,1,105,20,1,20,1,25,19,20,20,20,0,60,40,30,20,0,0,30,0,0,0,30,1,0,0,0,0,0,1,0,0,0,0,20,0,0,0,0,0.5,0.5
pun_noise,1,1,1,0,1,35,19,5,2,105,20,1,0,0,2,25,20,20,20,20,60,40,30,20,2,6,24,0,0,0,24,1,0,0,0,0,0,1,0,0,0,0,20,0,0,0,0,0.5,0.5
pun_noise,1,1,1,0,1,35,25,5,3,105,20,1,20,1,2,19,20,20,20,0,60,40,30,20,0,0,30,0,2,2,28,1,0,7,7,0,0,1,7,7,0,0,0,1,1,7,0,1,1
pun_noise,1,1,1,0,1,36,2,5,1,105,20,1,20,1,19,25,20,20,20,20,60,60,30,30,0,0,30,0,0,0,30,1,0,0,0,0,0,1,0,0,0,0,20,0,0,0,0,0.5,0.5
pun_noise,1,1,1,0,1,36,19,5,2,105,20,1,20,1,25,2,20,20,20,20,60,60,30,30,0,0,30,0,0,0,30,1,0,2,2,0,0,1,2,2,0,0,0,1,1,2,0,1,1
pun_noise,1,1,1,0,1,36,25,5,3,105,20,1,20,1,19,2,20,20,20,20,60,60,30,30,0,0,30,0,0,0,30,1,0,0,0,0,0,1,0,0,0,0,20,0,0,0,0,0.5,0.5
pun_noise,1,1,1,0,1,37,2,5,1,105,20,1,20,1,19,25,20,20,20,0,60,40,30,20,0,0,30,0,0,0,30,1,0,0,0,0,0,1,0,0,0,0,20,0,0,0,0,1,1
pun_noise,1,1,1,0,1,37,19,5,2,105,20,1,20,1,2,25,20,20,20,0,60,40,30,20,0,0,30,0,5,5,25,1,0,0,0,0,0,1,0,0,0,0,20,0,0,0,0,1,1
pun_noise,1,1,1,0,1,37,25,5,3,105,20,1,0,0,2,19,20,20,20,20,60,40,30,20,5,15,15,0,0,0,15,1,0,0,0,0,0,1,0,0,0,0,20,0,0,0,0,1,1
pun_noise,1,1,1,0,1,38,2,5,1,105,20,1,20,1,19,25,0,20,0,20,40,40,20,20,0,0,20,0,0,0,20,1,0,0,0,0,0,1,0,0,0,0,20,0,0,0,0,0.5,0.5
pun_noise,1,1,1,0,1,38,19,5,2,105,0,0,0,0,2,25,20,20,20,20,40,40,40,40,2,6,34,0,0,0,34,1,0,0,0,0,0,1,0,0,0,0,20,0,0,0,0,0.5,0.5
pun_noise,1,1,1,0,1,38,25,5,3,105,20,1,20,1,2,19,20,0,20,0,40,40,20,20,0,0,20,0,2,2,18,1,0,5,5,0,0,1,5,5,0,0,0,1,1,5,0,1,1
pun_noise,1,1,1,0,1,39,2,5,1,105,20,1,0,0,19,25,0,20,0,20,40,20,20,10,4,12,8,0,0,0,8,1,0,0,0,0,0,1,0,0,0,0,20,0,0,0,0,0.5,0.5
pun_noise,1,1,1,0,1,39,19,5,2,105,0,0,0,0,25,2,20,20,20,0,40,20,40,30,2,6,34,0,2,2,32,1,0,2,2,0,0,0,0,0,0,0,0,0,0,0,0,1,0
pun_noise,1,1,1,0,1,39,25,5,3,105,20,1,20,1,19,2,0,20,0,0,40,20,20,10,0,0,20,2,2,4,16,1,0,0,0,0,0,1,0,0,0,0,20,0,0,0,0,0.5,0.5
pun_noise,1,1,1,0,1,40,2,5,1,105,20,1,20,1,25,19,20,0,20,0,40,40,20,20,0,0,20,0,2,2,18,1,0,4,4,0,0,1,4,4,0,0,0,1,1,4,0,0.5,0.5
pun_noise,1,1,1,0,1,40,19,5,2,105,0,0,0,0,2,25,20,20,20,20,40,40,40,40,2,6,34,0,0,0,34,1,0,2,2,0,0,0,0,0,0,0,0,0,0,0,0,0.5,0
pun_noise,1,1,1,0,1,40,25,5,3,105,20,1,20,1,19,2,0,20,0,20,40,40,20,20,0,0,20,0,0,0,20,1,0,0,0,0,0,1,0,0,0,0,20,0,0,0,0,0,0
pun_noise,1,1,1,0,1,41,2,5,1,105,20,1,20,1,25,19,0,0,0,0,20,20,10,10,0,0,10,2,2,4,6,1,0,0,0,0,0,1,0,0,0,0,20,0,0,0,0,0.5,0.5
pun_noise,1,1,1,0,1,41,19,5,2,105,0,0,0,0,25,2,0,20,0,20,20,20,30,30,2,6,24,5,0,5,19,1,0,2,2,0,0,0,0,0,0,0,0,0,0,0,0,1,0
pun_noise,1,1,1,0,1,41,25,5,3,105,0,0,0,0,19,2,0,20,0,20,20,20,30,30,7,21,9,0,0,0,9,1,0,0,0,0,0,1,0,0,0,0,20,0,0,0,0,0.5,0.5
pun_noise,1,1,1,0,1,42,2,5,1,105,20,1,20,1,19,25,0,20,0,20,40,40,20,20,0,0,20,0,0,0,20,1,0,0,0,0,0,1,0,0,0,0,20,0,0,0,0,0,0
pun_noise,1,1,1,0,1,42,19,5,2,105,0,0,0,0,25,2,20,20,20,20,40,40,40,40,3,9,31,0,0,0,31,1,0,2,2,0,0,0,0,0,0,0,0,0,0,0,0,0.5,0
pun_noise,1,1,1,0,1,42,25,5,3,105,20,1,20,1,19,2,0,20,0,20,40,40,20,20,0,0,20,3,0,3,17,1,0,7,7,0,0,0,0,0,0,0,0,0,0,0,0,0.5,0
pun_noise,1,1,1,0,1,43,2,5,1,105,20,1,20,1,19,25,0,20,0,20,40,40,20,20,0,0,20,2,0,2,18,1,0,0,0,0,0,1,0,0,0,0,20,0,0,0,0,0.5,0.5
pun_noise,1,1,1,0,1,43,19,5,2,105,0,0,0,0,2,25,20,20,20,20,40,40,40,40,4,12,28,0,0,0,28,1,0,3,3,0,0,0,0,0,0,0,0,0,0,0,0,1,0
pun_noise,1,1,1,0,1,43,25,5,3,105,20,1,20,1,2,19,20,0,20,0,40,40,20,20,0,0,20,0,2,2,18,1,0,0,0,0,0,1,0,0,0,0,20,0,0,0,0,0.5,0.5
pun_noise,1,1,1,0,1,44,2,5,1,105,20,1,20,1,19,25,0,20,0,20,40,40,20,20,0,0,20,2,0,2,18,1,0,0,0,0,0,1,0,0,0,0,20,0,0,0,0,0.5,0.5
pun_noise,1,1,1,0,1,44,19,5,2,105,0,0,0,0,25,2,20,20,20,20,40,40,40,40,4,12,28,0,0,0,28,1,0,4,4,0,0,0,0,0,0,0,0,0,0,0,0,1,0
pun_noise,1,1,1,0,1,44,25,5,3,105,20,1,20,1,2,19,20,0,20,0,40,40,20,20,0,0,20,0,2,2,18,1,0,0,0,0,0,1,0,0,0,0,20,0,0,0,0,0.5,0.5
pun_noise,1,1,1,0,1,45,2,5,1,105,20,1,20,1,19,25,20,0,20,0,40,40,20,20,1,3,17,0,2,2,15,1,0,0,0,0,0,1,0,0,0,0,20,0,0,0,0,0.5,0.5
pun_noise,1,1,1,0,1,45,19,5,2,105,20,1,20,1,2,25,20,0,20,0,40,40,20,20,1,3,17,0,5,5,12,1,0,4,4,0,0,0,0,0,0,0,0,0,0,0,0,1,0
pun_noise,1,1,1,0,1,45,25,5,3,105,0,0,0,0,2,19,20,20,20,20,40,40,40,40,7,21,19,1,1,2,17,1,0,0,0,0,0,1,0,0,0,0,20,0,0,0,0,0.5,0.5
pun_noise,1,1,1,0,1,46,2,5,1,105,20,1,20,1,19,25,20,20,20,20,60,60,30,30,0,0,30,0,0,0,30,1,0,1,1,0,0,1,1,1,0,0,20,0,0,0,0,0.5,0.5
pun_noise,1,1,1,0,1,46,19,5,2,105,20,1,20,1,2,25,20,20,20,20,60,60,30,30,0,0,30,0,0,0,30,1,0,1,1,0,0,1,1,1,0,0,20,0,0,0,0,0.5,0.5
pun_noise,1,1,1,0,1,46,25,5,3,105,20,1,20,1,19,2,20,20,20,20,60,60,30,30,0,0,30,0,0,0,30,1,0,7,7,0,0,0,0,0,0,0,0,0,0,0,0,1,0
pun_noise,1,1,1,0,1,47,2,5,1,105,20,1,20,1,25,19,20,20,20,20,60,60,30,30,0,0,30,0,0,0,30,1,0,0,0,0,0,1,0,0,0,0,20,0,0,0,0,1,1
pun_noise,1,1,1,0,1,47,19,5,2,105,20,1,20,1,2,25,20,20,20,20,60,60,30,30,0,0,30,0,0,0,30,1,0,0,0,0,0,1,0,0,0,0,20,0,0,0,0,1,1
pun_noise,1,1,1,0,1,47,25,5,3,105,20,1,20,1,2,19,20,20,20,20,60,60,30,30,0,0,30,0,0,0,30,1,0,0,0,0,0,1,0,0,0,0,20,0,0,0,0,1,1
pun_noise,1,1,1,0,1,48,2,5,1,105,20,1,0,0,25,19,20,20,20,20,60,40,30,20,4,12,18,0,0,0,18,1,0,0,0,0,0,1,0,0,0,0,20,0,0,0,0,1,1
pun_noise,1,1,1,0,1,48,19,5,2,105,20,1,20,1,25,2,20,20,20,0,60,40,30,20,0,0,30,0,2,2,28,1,0,0,0,0,0,1,0,0,0,0,20,0,0,0,0,1,1
pun_noise,1,1,1,0,1,48,25,5,3,105,20,1,20,1,2,19,20,20,0,20,60,40,30,20,0,0,30,2,0,2,28,1,0,0,0,0,0,1,0,0,0,0,20,0,0,0,0,1,1
pun_noise,1,1,1,0,1,49,2,5,1,105,20,1,20,1,19,25,20,20,20,20,60,60,30,30,0,0,30,0,0,0,30,1,0,4,4,0,0,1,4,4,0,0,0,1,1,4,0,1,1
pun_noise,1,1,1,0,1,49,19,5,2,105,20,1,20,1,25,2,20,20,20,20,60,60,30,30,0,0,30,0,0,0,30,1,0,0,0,0,0,1,0,0,0,0,20,0,0,0,0,0.5,0.5
pun_noise,1,1,1,0,1,49,25,5,3,105,20,1,20,1,2,19,20,20,20,20,60,60,30,30,0,0,30,0,0,0,30,1,0,0,0,0,0,1,0,0,0,0,20,0,0,0,0,0.5,0.5
pun_noise,1,1,1,0,1,50,2,5,1,105,20,1,20,1,25,19,20,0,20,0,40,40,20,20,0,0,20,0,2,2,18,1,0,0,0,0,0,1,0,0,0,0,20,0,0,0,0,1,1
pun_noise,1,1,1,0,1,50,19,5,2,105,0,0,0,0,25,2,20,20,20,20,40,40,40,40,2,6,34,0,0,0,34,1,0,0,0,0,0,1,0,0,0,0,20,0,0,0,0,1,1
pun_noise,1,1,1,0,1,50,25,5,3,105,20,1,20,1,19,2,0,20,0,20,40,40,20,20,0,0,20,0,0,0,20,1,0,0,0,0,0,1,0,0,0,0,20,0,0,0,0,1,1
pun_noise,1,1,1,0,1,1,12,6,1,106,0,0,0,0,20,27,0,0,0,0,0,0,20,20,0,0,20,0,0,0,20,1,0,,,,,,,,,,,,,,,,
pun_noise,1,1,1,0,1,1,20,6,2,106,0,0,0,0,12,27,0,0,0,0,0,0,20,20,0,0,20,0,0,0,20,1,0,,,,,,,,,,,,,,,,
pun_noise,1,1,1,0,1,1,27,6,3,106,0,0,0,0,12,20,0,0,0,0,0,0,20,20,0,0,20,0,0,0,20,1,0,,,,,,,,,,,,,,,,
pun_noise,1,1,1,0,1,2,12,6,1,106,0,0,0,0,20,27,0,0,0,0,0,0,20,20,0,0,20,0,0,0,20,1,0,0,0,0,0,0,0,0,0,0,0,0,0,0,0,0,0
pun_noise,1,1,1,0,1,2,20,6,2,106,0,0,0,0,27,12,0,0,0,0,0,0,20,20,0,0,20,0,0,0,20,1,0,0,0,0,0,0,0,0,0,0,0,0,0,0,0,0,0
pun_noise,1,1,1,0,1,2,27,6,3,106,0,0,0,0,20,12,0,0,0,0,0,0,20,20,0,0,20,0,0,0,20,1,0,0,0,0,0,0,0,0,0,0,0,0,0,0,0,0,0
pun_noise,1,1,1,0,1,3,12,6,1,106,0,0,0,0,20,27,0,20,0,0,20,0,30,20,7,21,9,0,0,0,9,1,0,0,0,0,0,0,0,0,0,0,0,0,0,0,0,0,0
pun_noise,1,1,1,0,1,3,20,6,2,106,0,0,0,0,12,27,0,20,0,0,20,0,30,20,5,15,15,2,2,4,11,1,0,0,0,0,0,0,0,0,0,0,0,0,0,0,0,0,0
pun_noise,1,1,1,0,1,3,27,6,3,106,20,1,0,0,20,12,0,0,0,0,20,0,10,0,2,6,4,5,5,10,-6,1,0,0,0,0,0,0,0,0,0,0,0,0,0,0,0,0,0
pun_noise,1,1,1,0,1,4,12,6,1,106,0,0,0,0,27,20,0,20,0,20,20,20,30,30,1,3,27,5,5,10,17,1,0,7,7,0,0,0,0,0,0,0,0,0,0,0,0,0,0
pun_noise,1,1,1,0,1,4,20,6,2,106,20,1,20,1,12,27,0,0,0,0,20,20,10,10,5,15,0,1,1,2,-2,1,0,5,5,0,0,0,0,0,0,0,0,0,0,0,0,0,0
pun_noise,1,1,1,0,1,4,27,6,3,106,0,0,0,0,12,20,0,20,0,20,20,20,30,30,6,18,12,0,0,0,12,1,0,2,2,0,0,1,2,2,0,0,0,1,1,2,0,0,0
pun_noise,1,1,1,0,1,5,12,6,1,106,20,1,20,1,27,20,20,0,0,0,40,20,20,10,0,0,20,5,5,10,10,1,0,1,1,0,0,0,0,0,0,0,0,0,0,0,0,0.5,0
pun_noise,1,1,1,0,1,5,20,6,2,106,0,0,0,0,12,27,20,20,20,0,40,20,40,30,7,21,19,0,2,2,17,1,0,5,5,0,0,1,5,5,0,0,20,0,0,0,0,0,0
pun_noise,1,1,1,0,1,5,27,6,3,106,20,1,0,0,20,12,0,20,0,20,40,20,20,10,7,21,0,2,0,2,-2,1,0,6,6,0,0,0,0,0,0,0,0,0,0,0,0,0.5,0
pun_noise,1,1,1,0,1,6,12,6,1,106,20,1,20,1,20,27,0,0,0,0,20,20,10,10,2,6,4,5,5,10,-6,1,0,0,0,0,0,1,0,0,0,0,20,0,0,0,0,0,0
pun_noise,1,1,1,0,1,6,20,6,2,106,0,0,0,0,27,12,0,20,0,20,20,20,30,30,6,18,12,2,2,4,8,1,0,7,7,0,0,0,0,0,0,0,0,0,0,0,0,0.5,0
pun_noise,1,1,1,0,1,6,27,6,3,106,0,0,0,0,20,12,0,20,0,20,20,20,30,30,7,21,9,1,0,1,8,1,0,7,7,0,0,1,7,7,0,0,0,1,1,7,0,0.5,0.5
pun_noise,1,1,1,0,1,7,12,6,1,106,0,0,0,0,27,20,0,0,0,0,0,0,20,20,1,3,17,0,0,0,17,1,0,2,2,0,0,1,2,2,0,0,20,0,0,0,0,0,0
pun_noise,1,1,1,0,1,7,20,6,2,106,0,0,0,0,27,12,0,0,0,0,0,0,20,20,0,0,20,1,1,2,18,1,0,6,6,0,0,0,0,0,0,0,0,0,0,0,0,0.5,0
pun_noise,1,1,1,0,1,7,27,6,3,106,0,0,0,0,12,20,0,0,0,0,0,0,20,20,1,3,17,0,0,0,17,1,0,7,7,0,0,0,0,0,0,0,0,0,0,0,0,0.5,0
pun_noise,1,1,1,0,1,8,12,6,1,106,0,0,0,0,27,20,20,0,20,0,20,20,30,30,1,3,27,0,3,3,24,1,0,1,1,0,0,0,0,0,0,0,0,0,0,0,0,0,0
pun_noise,1,1,1,0,1,8,20,6,2,106,0,0,0,0,12,27,0,20,0,20,20,20,30,30,4,12,18,0,3,3,15,1,0,0,0,0,0,0,0,0,0,0,0,0,0,0,0,0,0
pun_noise,1,1,1,0,1,8,27,6,3,106,20,1,20,1,12,20,0,0,0,0,20,20,10,10,3,9,1,1,1,2,-1,1,0,1,1,0,0,0,0,0,0,0,0,0,0,0,0,0,0
pun_noise,1,1,1,0,1,9,12,6,1,106,20,1,20,1,27,20,0,0,0,0,20,20,10,10,3,9,1,5,5,10,-9,1,0,1,1,0,0,0,0,0,0,0,0,0,0,0,0,0.5,0
pun_noise,1,1,1,0,1,9,20,6,2,106,0,0,0,0,27,12,0,20,0,20,20,20,30,30,5,15,15,0,3,3,12,1,0,4,4,0,0,0,0,0,0,0,0,0,0,0,0,0.5,0
pun_noise,1,1,1,0,1,9,27,6,3,106,0,0,0,0,12,20,20,0,20,0,20,20,30,30,5,15,15,0,0,0,15,1,0,3,3,0,0,1,3,3,0,0,20,0,0,0,0,0,0
pun_noise,1,1,1,0,1,10,12,6,1,106,0,0,0,0,27,20,0,0,0,0,0,0,20,20,0,0,20,0,0,0,20,1,0,3,3,0,0,1,3,3,0,0,20,0,0,0,0,0,0
pun_noise,1,1,1,0,1,10,20,6,2,106,0,0,0,0,27,12,0,0,0,0,0,0,20,20,0,0,20,0,0,0,20,1,0,5,5,0,0,0,0,0,0,0,0,0,0,0,0,0.5,0
pun_noise,1,1,1,0,1,10,27,6,3,106,0,0,0,0,20,12,0,0,0,0,0,0,20,20,0,0,20,0,0,0,20,1,0,5,5,0,0,0,0,0,0,0,0,0,0,0,0,0.5,0
pun_noise,1,1,1,0,1,11,12,6,1,106,0,0,0,0,27,20,0,0,0,0,0,0,20,20,0,0,20,0,0,0,20,1,0,0,0,0,0,0,0,0,0,0,0,0,0,0,0,0,0
pun_noise,1,1,1,0,1,11,20,6,2,106,0,0,0,0,27,12,0,0,0,0,0,0,20,20,0,0,20,0,0,0,20,1,0,0,0,0,0,0,0,0,0,0,0,0,0,0,0,0,0
pun_noise,1,1,1,0,1,11,27,6,3,106,0,0,0,0,12,20,0,0,0,0,0,0,20,20,0,0,20,0,0,0,20,1,0,0,0,0,0,0,0,0,0,0,0,0,0,0,0,0,0
pun_noise,1,1,1,0,1,12,12,6,1,106,0,0,0,0,20,27,0,20,0,20,20,20,30,30,0,0,30,5,0,5,25,1,0,0,0,0,0,0,0,0,0,0,0,0,0,0,0,0,0
pun_noise,1,1,1,0,1,12,20,6,2,106,0,0,0,0,27,12,20,0,20,0,20,20,30,30,5,15,15,3,0,3,12,1,0,0,0,0,0,0,0,0,0,0,0,0,0,0,0,0,0
pun_noise,1,1,1,0,1,12,27,6,3,106,20,1,20,1,12,20,0,0,0,0,20,20,10,10,3,9,1,0,0,0,1,1,0,0,0,0,0,0,0,0,0,0,0,0,0,0,0,0,0
pun_noise,1,1,1,0,1,13,12,6,1,106,20,1,0,0,20,27,0,20,0,20,40,20,20,10,0,0,20,5,5,10,10,1,0,0,0,0,0,0,0,0,0,0,0,0,0,0,0,0.5,0
pun_noise,1,1,1,0,1,13,20,6,2,106,0,0,0,0,12,27,20,20,0,20,40,20,40,30,5,15,25,0,0,0,25,1,0,5,5,0,0,0,0,0,0,0,0,0,0,0,0,0.5,0
pun_noise,1,1,1,0,1,13,27,6,3,106,20,1,20,1,12,20,20,0,0,0,40,20,20,10,5,15,5,0,0,0,5,1,0,3,3,0,0,1,3,3,0,0,20,0,0,0,0,0,0
pun_noise,1,1,1,0,1,14,12,6,1,106,0,0,0,0,20,27,0,0,0,0,0,0,20,20,0,0,20,0,0,0,20,1,0,0,0,0,0,1,0,0,0,0,0,1,1,0,0,0.5,0.5
pun_noise,1,1,1,0,1,14,20,6,2,106,0,0,0,0,12,27,0,0,0,0,0,0,20,20,0,0,20,0,0,0,20,1,0,5,5,0,0,0,0,0,0,0,0,0,0,0,0,0.5,0
pun_noise,1,1,1,0,1,14,27,6,3,106,0,0,0,0,12,20,0,0,0,0,0,0,20,20,0,0,20,0,0,0,20,1,0,5,5,0,0,1,5,5,0,0,20,0,0,0,0,0,0
pun_noise,1,1,1,0,1,15,12,6,1,106,0,0,0,0,27,20,0,0,0,0,0,0,20,20,0,0,20,0,0,0,20,1,0,0,0,0,0,0,0,0,0,0,0,0,0,0,0,0,0
pun_noise,1,1,1,0,1,15,20,6,2,106,0,0,0,0,27,12,0,0,0,0,0,0,20,20,0,0,20,0,0,0,20,1,0,0,0,0,0,0,0,0,0,0,0,0,0,0,0,0,0
pun_noise,1,1,1,0,1,15,27,6,3,106,0,0,0,0,20,12,0,0,0,0,0,0,20,20,0,0,20,0,0,0,20,1,0,0,0,0,0,0,0,0,0,0,0,0,0,0,0,0,0
pun_noise,1,1,1,0,1,16,12,6,1,106,0,0,0,0,27,20,0,0,0,0,0,0,20,20,0,0,20,0,0,0,20,1,0,0,0,0,0,0,0,0,0,0,0,0,0,0,0,0,0
pun_noise,1,1,1,0,1,16,20,6,2,106,0,0,0,0,12,27,0,0,0,0,0,0,20,20,0,0,20,0,0,0,20,1,0,0,0,0,0,0,0,0,0,0,0,0,0,0,0,0,0
pun_noise,1,1,1,0,1,16,27,6,3,106,0,0,0,0,12,20,0,0,0,0,0,0,20,20,0,0,20,0,0,0,20,1,0,0,0,0,0,0,0,0,0,0,0,0,0,0,0,0,0
pun_noise,1,1,1,0,1,17,12,6,1,106,0,0,0,0,20,27,20,0,20,0,20,20,30,30,0,0,30,0,5,5,25,1,0,0,0,0,0,0,0,0,0,0,0,0,0,0,0,0,0
pun_noise,1,1,1,0,1,17,20,6,2,106,20,1,20,1,12,27,0,0,0,0,20,20,10,10,0,0,10,0,0,0,10,1,0,0,0,0,0,0,0,0,0,0,0,0,0,0,0,0,0
pun_noise,1,1,1,0,1,17,27,6,3,106,0,0,0,0,20,12,20,0,20,0,20,20,30,30,5,15,15,0,0,0,15,1,0,0,0,0,0,0,0,0,0,0,0,0,0,0,0,0,0
pun_noise,1,1,1,0,1,18,12,6,1,106,0,0,0,0,20,27,20,0,20,0,20,20,30,30,2,6,24,0,5,5,19,1,0,0,0,0,0,0,0,0,0,0,0,0,0,0,0,0.5,0
pun_noise,1,1,1,0,1,18,20,6,2,106,20,1,20,1,12,27,0,0,0,0,20,20,10,10,0,0,10,2,2,4,6,1,0,0,0,0,0,1,0,0,0,0,20,0,0,0,0,0,0
pun_noise,1,1,1,0,1,18,27,6,3,106,0,0,0,0,20,12,20,0,20,0,20,20,30,30,7,21,9,0,0,0,9,1,0,5,5,0,0,0,0,0,0,0,0,0,0,0,0,0.5,0
pun_noise,1,1,1,0,1,19,12,6,1,106,20,1,20,1,20,27,0,0,0,0,20,20,10,10,2,6,4,5,5,10,-6,1,0,2,2,0,0,0,0,0,0,0,0,0,0,0,0,0.5,0
pun_noise,1,1,1,0,1,19,20,6,2,106,0,0,0,0,27,12,0,20,0,20,20,20,30,30,5,15,15,0,0,0,15,1,0,0,0,0,0,1,0,0,0,0,20,0,0,0,0,0,0
pun_noise,1,1,1,0,1,19,27,6,3,106,0,0,0,0,12,20,20,0,20,0,20,20,30,30,5,15,15,2,0,2,13,1,0,7,7,0,0,0,0,0,0,0,0,0,0,0,0,0.5,0
pun_noise,1,1,1,0,1,20,12,6,1,106,20,1,20,1,20,27,0,0,0,0,20,20,10,10,0,0,10,5,5,10,0,1,0,2,2,0,0,1,2,2,0,0,20,0,0,0,0,0,0
pun_noise,1,1,1,0,1,20,20,6,2,106,0,0,0,0,27,12,0,20,0,20,20,20,30,30,5,15,15,0,0,0,15,1,0,5,5,0,0,0,0,0,0,0,0,0,0,0,0,0.5,0
pun_noise,1,1,1,0,1,20,27,6,3,106,0,0,0,0,20,12,0,20,0,20,20,20,30,30,5,15,15,0,0,0,15,1,0,5,5,0,0,0,0,0,0,0,0,0,0,0,0,0.5,0
